"rt","stimulus","response","task","trial_type","trial_index","time_elapsed","internal_node_id","CB","tempID","age","sex","success","question_order","value","condition","key","correct"
"2531.600000023842","これから実験をおこないます（10分程度）。<br>実験の最初に年齢と性別の入力が求められますが，回答に関係なくランダムなデータが保存されます。<br>授業のデモということで個人の特定可能性が高いことを考慮し，このような措置をとりました。<br>フランカー課題と質問紙はご自身の遂行成績・点数が保存されます。<br>収集したデータは分析のデモに使用します。個人が特定されることはないですし，<br>リアルなデータの方が練習にもなるはずなので，これらの課題は真剣に取り組んでもらえれば幸いです。"," ","instruction","html-keyboard-response","0","2536","0.0-0.0","1","0pu18xqt8ws6","21","女性","","","","","",""
"","","","instruction","fullscreen","1","6173","0.0-1.0","1","0pu18xqt8ws6","21","女性","true","","","","",""
"3969.5","","{""age"":21}","par_info","survey-text","2","10148","0.0-2.0-0.0","1","0pu18xqt8ws6","21","女性","","","","","",""
"1825.3000000715256","","{""sex"":""女性""}","par_info","survey-multi-choice","3","11975","0.0-2.0-1.0","1","0pu18xqt8ws6","21","女性","","[0]","","","",""
"","","","","call-function","4","11979","0.0-3.0-0.0","1","0pu18xqt8ws6","21","女性","","","","","",""
"40558.200000047684","これから画面上に５つの矢印（>>>>>など）が表示されます。<br>中央の矢印が左向き（<）なら「f」キーを<br>中央の矢印が右向き（>）なら「j」キーを<br>なるべく早く，正確に押してください<br><br>準備ができたら「f」キーか「j」キーを押して練習を開始してください。","f","instruction","html-keyboard-response","5","52539","0.0-3.0-1.0","1","0pu18xqt8ws6","21","女性","","","","","",""
"null","","null","","html-keyboard-response","6","53044","0.0-3.0-2.0-0.0","1","0pu18xqt8ws6","21","女性","","","","","",""
"null","<p style=""font-size: 48px"">+</p>","null","","html-keyboard-response","7","53547","0.0-3.0-2.0-1.0","1","0pu18xqt8ws6","21","女性","","","","","",""
"646.2999999523163","<p style=""font-size: 48px"">--<--</p>","f","flanker_practice","html-keyboard-response","8","54195","0.0-3.0-2.0-2.0","1","0pu18xqt8ws6","21","女性","","","","中性","f","1"
"null","","null","","html-keyboard-response","9","54700","0.0-3.0-2.0-0.1","1","0pu18xqt8ws6","21","女性","","","","","",""
"null","<p style=""font-size: 48px"">+</p>","null","","html-keyboard-response","10","55206","0.0-3.0-2.0-1.1","1","0pu18xqt8ws6","21","女性","","","","","",""
"1643.8999999761581","<p style=""font-size: 48px"">>><>></p>","f","flanker_practice","html-keyboard-response","11","56851","0.0-3.0-2.0-2.1","1","0pu18xqt8ws6","21","女性","","","","不一致","f","1"
"null","","null","","html-keyboard-response","12","57356","0.0-3.0-2.0-0.2","1","0pu18xqt8ws6","21","女性","","","","","",""
"null","<p style=""font-size: 48px"">+</p>","null","","html-keyboard-response","13","57857","0.0-3.0-2.0-1.2","1","0pu18xqt8ws6","21","女性","","","","","",""
"600.8000000715256","<p style=""font-size: 48px""><<<<<</p>","f","flanker_practice","html-keyboard-response","14","58459","0.0-3.0-2.0-2.2","1","0pu18xqt8ws6","21","女性","","","","一致","f","1"
"null","","null","","html-keyboard-response","15","58962","0.0-3.0-2.0-0.3","1","0pu18xqt8ws6","21","女性","","","","","",""
"null","<p style=""font-size: 48px"">+</p>","null","","html-keyboard-response","16","59466","0.0-3.0-2.0-1.3","1","0pu18xqt8ws6","21","女性","","","","","",""
"616","<p style=""font-size: 48px""><<><<</p>","j","flanker_practice","html-keyboard-response","17","60082","0.0-3.0-2.0-2.3","1","0pu18xqt8ws6","21","女性","","","","不一致","j","1"
"null","","null","","html-keyboard-response","18","60587","0.0-3.0-2.0-0.4","1","0pu18xqt8ws6","21","女性","","","","","",""
"null","<p style=""font-size: 48px"">+</p>","null","","html-keyboard-response","19","61089","0.0-3.0-2.0-1.4","1","0pu18xqt8ws6","21","女性","","","","","",""
"729.5","<p style=""font-size: 48px"">>><>></p>","f","flanker_practice","html-keyboard-response","20","61819","0.0-3.0-2.0-2.4","1","0pu18xqt8ws6","21","女性","","","","不一致","f","1"
"null","","null","","html-keyboard-response","21","62324","0.0-3.0-2.0-0.5","1","0pu18xqt8ws6","21","女性","","","","","",""
"null","<p style=""font-size: 48px"">+</p>","null","","html-keyboard-response","22","62830","0.0-3.0-2.0-1.5","1","0pu18xqt8ws6","21","女性","","","","","",""
"620.6000000238419","<p style=""font-size: 48px""><<><<</p>","j","flanker_practice","html-keyboard-response","23","63452","0.0-3.0-2.0-2.5","1","0pu18xqt8ws6","21","女性","","","","不一致","j","1"
"null","","null","","html-keyboard-response","24","63957","0.0-3.0-2.0-0.6","1","0pu18xqt8ws6","21","女性","","","","","",""
"null","<p style=""font-size: 48px"">+</p>","null","","html-keyboard-response","25","64458","0.0-3.0-2.0-1.6","1","0pu18xqt8ws6","21","女性","","","","","",""
"800.1999999284744","<p style=""font-size: 48px"">-->--</p>","j","flanker_practice","html-keyboard-response","26","65259","0.0-3.0-2.0-2.6","1","0pu18xqt8ws6","21","女性","","","","中性","j","1"
"null","","null","","html-keyboard-response","27","65764","0.0-3.0-2.0-0.7","1","0pu18xqt8ws6","21","女性","","","","","",""
"null","<p style=""font-size: 48px"">+</p>","null","","html-keyboard-response","28","66270","0.0-3.0-2.0-1.7","1","0pu18xqt8ws6","21","女性","","","","","",""
"548.5","<p style=""font-size: 48px"">--<--</p>","f","flanker_practice","html-keyboard-response","29","66819","0.0-3.0-2.0-2.7","1","0pu18xqt8ws6","21","女性","","","","中性","f","1"
"null","","null","","html-keyboard-response","30","67324","0.0-3.0-2.0-0.8","1","0pu18xqt8ws6","21","女性","","","","","",""
"null","<p style=""font-size: 48px"">+</p>","null","","html-keyboard-response","31","67825","0.0-3.0-2.0-1.8","1","0pu18xqt8ws6","21","女性","","","","","",""
"489.10000002384186","<p style=""font-size: 48px"">>>>>></p>","j","flanker_practice","html-keyboard-response","32","68315","0.0-3.0-2.0-2.8","1","0pu18xqt8ws6","21","女性","","","","一致","j","1"
"null","","null","","html-keyboard-response","33","68820","0.0-3.0-2.0-0.9","1","0pu18xqt8ws6","21","女性","","","","","",""
"null","<p style=""font-size: 48px"">+</p>","null","","html-keyboard-response","34","69326","0.0-3.0-2.0-1.9","1","0pu18xqt8ws6","21","女性","","","","","",""
"508.1999999284744","<p style=""font-size: 48px"">>>>>></p>","j","flanker_practice","html-keyboard-response","35","69835","0.0-3.0-2.0-2.9","1","0pu18xqt8ws6","21","女性","","","","一致","j","1"
"null","","null","","html-keyboard-response","36","70336","0.0-3.0-2.0-0.10","1","0pu18xqt8ws6","21","女性","","","","","",""
"null","<p style=""font-size: 48px"">+</p>","null","","html-keyboard-response","37","70838","0.0-3.0-2.0-1.10","1","0pu18xqt8ws6","21","女性","","","","","",""
"500","<p style=""font-size: 48px""><<<<<</p>","f","flanker_practice","html-keyboard-response","38","71339","0.0-3.0-2.0-2.10","1","0pu18xqt8ws6","21","女性","","","","一致","f","1"
"null","","null","","html-keyboard-response","39","71842","0.0-3.0-2.0-0.11","1","0pu18xqt8ws6","21","女性","","","","","",""
"null","<p style=""font-size: 48px"">+</p>","null","","html-keyboard-response","40","72343","0.0-3.0-2.0-1.11","1","0pu18xqt8ws6","21","女性","","","","","",""
"411.1999999284744","<p style=""font-size: 48px"">-->--</p>","j","flanker_practice","html-keyboard-response","41","72755","0.0-3.0-2.0-2.11","1","0pu18xqt8ws6","21","女性","","","","中性","j","1"
"3311.6999999284744","それでは本番を行います。<br>準備ができたら「f」キーか「j」キーを押して課題を開始してください。","j","instruction","html-keyboard-response","42","76068","0.0-3.0-3.0","1","0pu18xqt8ws6","21","女性","","","","","",""
"null","","null","","html-keyboard-response","43","76569","0.0-3.0-4.0-0.0","1","0pu18xqt8ws6","21","女性","","","","","",""
"null","<p style=""font-size: 48px"">+</p>","null","","html-keyboard-response","44","77070","0.0-3.0-4.0-1.0","1","0pu18xqt8ws6","21","女性","","","","","",""
"411.89999997615814","<p style=""font-size: 48px"">-->--</p>","j","flanker_main","html-keyboard-response","45","77483","0.0-3.0-4.0-2.0","1","0pu18xqt8ws6","21","女性","","","","中性","j","1"
"null","","null","","html-keyboard-response","46","77988","0.0-3.0-4.0-0.1","1","0pu18xqt8ws6","21","女性","","","","","",""
"null","<p style=""font-size: 48px"">+</p>","null","","html-keyboard-response","47","78493","0.0-3.0-4.0-1.1","1","0pu18xqt8ws6","21","女性","","","","","",""
"438","<p style=""font-size: 48px"">--<--</p>","f","flanker_main","html-keyboard-response","48","78931","0.0-3.0-4.0-2.1","1","0pu18xqt8ws6","21","女性","","","","中性","f","1"
"null","","null","","html-keyboard-response","49","79433","0.0-3.0-4.0-0.2","1","0pu18xqt8ws6","21","女性","","","","","",""
"null","<p style=""font-size: 48px"">+</p>","null","","html-keyboard-response","50","79939","0.0-3.0-4.0-1.2","1","0pu18xqt8ws6","21","女性","","","","","",""
"575.7999999523163","<p style=""font-size: 48px""><<><<</p>","j","flanker_main","html-keyboard-response","51","80516","0.0-3.0-4.0-2.2","1","0pu18xqt8ws6","21","女性","","","","不一致","j","1"
"null","","null","","html-keyboard-response","52","81021","0.0-3.0-4.0-0.3","1","0pu18xqt8ws6","21","女性","","","","","",""
"null","<p style=""font-size: 48px"">+</p>","null","","html-keyboard-response","53","81527","0.0-3.0-4.0-1.3","1","0pu18xqt8ws6","21","女性","","","","","",""
"524","<p style=""font-size: 48px""><<><<</p>","j","flanker_main","html-keyboard-response","54","82051","0.0-3.0-4.0-2.3","1","0pu18xqt8ws6","21","女性","","","","不一致","j","1"
"null","","null","","html-keyboard-response","55","82552","0.0-3.0-4.0-0.4","1","0pu18xqt8ws6","21","女性","","","","","",""
"null","<p style=""font-size: 48px"">+</p>","null","","html-keyboard-response","56","83057","0.0-3.0-4.0-1.4","1","0pu18xqt8ws6","21","女性","","","","","",""
"442","<p style=""font-size: 48px"">>>>>></p>","j","flanker_main","html-keyboard-response","57","83499","0.0-3.0-4.0-2.4","1","0pu18xqt8ws6","21","女性","","","","一致","j","1"
"null","","null","","html-keyboard-response","58","84005","0.0-3.0-4.0-0.5","1","0pu18xqt8ws6","21","女性","","","","","",""
"null","<p style=""font-size: 48px"">+</p>","null","","html-keyboard-response","59","84511","0.0-3.0-4.0-1.5","1","0pu18xqt8ws6","21","女性","","","","","",""
"556.0999999046326","<p style=""font-size: 48px""><<><<</p>","j","flanker_main","html-keyboard-response","60","85067","0.0-3.0-4.0-2.5","1","0pu18xqt8ws6","21","女性","","","","不一致","j","1"
"null","","null","","html-keyboard-response","61","85573","0.0-3.0-4.0-0.6","1","0pu18xqt8ws6","21","女性","","","","","",""
"null","<p style=""font-size: 48px"">+</p>","null","","html-keyboard-response","62","86079","0.0-3.0-4.0-1.6","1","0pu18xqt8ws6","21","女性","","","","","",""
"460.59999990463257","<p style=""font-size: 48px"">>>>>></p>","j","flanker_main","html-keyboard-response","63","86540","0.0-3.0-4.0-2.6","1","0pu18xqt8ws6","21","女性","","","","一致","j","1"
"null","","null","","html-keyboard-response","64","87042","0.0-3.0-4.0-0.7","1","0pu18xqt8ws6","21","女性","","","","","",""
"null","<p style=""font-size: 48px"">+</p>","null","","html-keyboard-response","65","87548","0.0-3.0-4.0-1.7","1","0pu18xqt8ws6","21","女性","","","","","",""
"430.10000002384186","<p style=""font-size: 48px"">>>>>></p>","j","flanker_main","html-keyboard-response","66","87979","0.0-3.0-4.0-2.7","1","0pu18xqt8ws6","21","女性","","","","一致","j","1"
"null","","null","","html-keyboard-response","67","88482","0.0-3.0-4.0-0.8","1","0pu18xqt8ws6","21","女性","","","","","",""
"null","<p style=""font-size: 48px"">+</p>","null","","html-keyboard-response","68","88985","0.0-3.0-4.0-1.8","1","0pu18xqt8ws6","21","女性","","","","","",""
"465.5","<p style=""font-size: 48px""><<<<<</p>","f","flanker_main","html-keyboard-response","69","89452","0.0-3.0-4.0-2.8","1","0pu18xqt8ws6","21","女性","","","","一致","f","1"
"null","","null","","html-keyboard-response","70","89956","0.0-3.0-4.0-0.9","1","0pu18xqt8ws6","21","女性","","","","","",""
"null","<p style=""font-size: 48px"">+</p>","null","","html-keyboard-response","71","90457","0.0-3.0-4.0-1.9","1","0pu18xqt8ws6","21","女性","","","","","",""
"530.2999999523163","<p style=""font-size: 48px"">--<--</p>","f","flanker_main","html-keyboard-response","72","90988","0.0-3.0-4.0-2.9","1","0pu18xqt8ws6","21","女性","","","","中性","f","1"
"null","","null","","html-keyboard-response","73","91490","0.0-3.0-4.0-0.10","1","0pu18xqt8ws6","21","女性","","","","","",""
"null","<p style=""font-size: 48px"">+</p>","null","","html-keyboard-response","74","91993","0.0-3.0-4.0-1.10","1","0pu18xqt8ws6","21","女性","","","","","",""
"434.10000002384186","<p style=""font-size: 48px"">-->--</p>","j","flanker_main","html-keyboard-response","75","92428","0.0-3.0-4.0-2.10","1","0pu18xqt8ws6","21","女性","","","","中性","j","1"
"null","","null","","html-keyboard-response","76","92933","0.0-3.0-4.0-0.11","1","0pu18xqt8ws6","21","女性","","","","","",""
"null","<p style=""font-size: 48px"">+</p>","null","","html-keyboard-response","77","93439","0.0-3.0-4.0-1.11","1","0pu18xqt8ws6","21","女性","","","","","",""
"484.2000000476837","<p style=""font-size: 48px"">--<--</p>","f","flanker_main","html-keyboard-response","78","93924","0.0-3.0-4.0-2.11","1","0pu18xqt8ws6","21","女性","","","","中性","f","1"
"null","","null","","html-keyboard-response","79","94426","0.0-3.0-4.0-0.12","1","0pu18xqt8ws6","21","女性","","","","","",""
"null","<p style=""font-size: 48px"">+</p>","null","","html-keyboard-response","80","94930","0.0-3.0-4.0-1.12","1","0pu18xqt8ws6","21","女性","","","","","",""
"481.5","<p style=""font-size: 48px""><<<<<</p>","f","flanker_main","html-keyboard-response","81","95412","0.0-3.0-4.0-2.12","1","0pu18xqt8ws6","21","女性","","","","一致","f","1"
"null","","null","","html-keyboard-response","82","95917","0.0-3.0-4.0-0.13","1","0pu18xqt8ws6","21","女性","","","","","",""
"null","<p style=""font-size: 48px"">+</p>","null","","html-keyboard-response","83","96423","0.0-3.0-4.0-1.13","1","0pu18xqt8ws6","21","女性","","","","","",""
"461","<p style=""font-size: 48px"">--<--</p>","f","flanker_main","html-keyboard-response","84","96885","0.0-3.0-4.0-2.13","1","0pu18xqt8ws6","21","女性","","","","中性","f","1"
"null","","null","","html-keyboard-response","85","97390","0.0-3.0-4.0-0.14","1","0pu18xqt8ws6","21","女性","","","","","",""
"null","<p style=""font-size: 48px"">+</p>","null","","html-keyboard-response","86","97896","0.0-3.0-4.0-1.14","1","0pu18xqt8ws6","21","女性","","","","","",""
"499.7999999523163","<p style=""font-size: 48px""><<><<</p>","j","flanker_main","html-keyboard-response","87","98396","0.0-3.0-4.0-2.14","1","0pu18xqt8ws6","21","女性","","","","不一致","j","1"
"null","","null","","html-keyboard-response","88","98899","0.0-3.0-4.0-0.15","1","0pu18xqt8ws6","21","女性","","","","","",""
"null","<p style=""font-size: 48px"">+</p>","null","","html-keyboard-response","89","99405","0.0-3.0-4.0-1.15","1","0pu18xqt8ws6","21","女性","","","","","",""
"430","<p style=""font-size: 48px"">--<--</p>","f","flanker_main","html-keyboard-response","90","99836","0.0-3.0-4.0-2.15","1","0pu18xqt8ws6","21","女性","","","","中性","f","1"
"null","","null","","html-keyboard-response","91","100341","0.0-3.0-4.0-0.16","1","0pu18xqt8ws6","21","女性","","","","","",""
"null","<p style=""font-size: 48px"">+</p>","null","","html-keyboard-response","92","100847","0.0-3.0-4.0-1.16","1","0pu18xqt8ws6","21","女性","","","","","",""
"516.6000000238419","<p style=""font-size: 48px""><<><<</p>","j","flanker_main","html-keyboard-response","93","101364","0.0-3.0-4.0-2.16","1","0pu18xqt8ws6","21","女性","","","","不一致","j","1"
"null","","null","","html-keyboard-response","94","101869","0.0-3.0-4.0-0.17","1","0pu18xqt8ws6","21","女性","","","","","",""
"null","<p style=""font-size: 48px"">+</p>","null","","html-keyboard-response","95","102371","0.0-3.0-4.0-1.17","1","0pu18xqt8ws6","21","女性","","","","","",""
"544.3000000715256","<p style=""font-size: 48px""><<><<</p>","j","flanker_main","html-keyboard-response","96","102916","0.0-3.0-4.0-2.17","1","0pu18xqt8ws6","21","女性","","","","不一致","j","1"
"null","","null","","html-keyboard-response","97","103421","0.0-3.0-4.0-0.18","1","0pu18xqt8ws6","21","女性","","","","","",""
"null","<p style=""font-size: 48px"">+</p>","null","","html-keyboard-response","98","103927","0.0-3.0-4.0-1.18","1","0pu18xqt8ws6","21","女性","","","","","",""
"508.2999999523163","<p style=""font-size: 48px"">>><>></p>","j","flanker_main","html-keyboard-response","99","104436","0.0-3.0-4.0-2.18","1","0pu18xqt8ws6","21","女性","","","","不一致","f","0"
"null","","null","","html-keyboard-response","100","104941","0.0-3.0-4.0-0.19","1","0pu18xqt8ws6","21","女性","","","","","",""
"null","<p style=""font-size: 48px"">+</p>","null","","html-keyboard-response","101","105442","0.0-3.0-4.0-1.19","1","0pu18xqt8ws6","21","女性","","","","","",""
"480.7999999523163","<p style=""font-size: 48px"">>>>>></p>","j","flanker_main","html-keyboard-response","102","105924","0.0-3.0-4.0-2.19","1","0pu18xqt8ws6","21","女性","","","","一致","j","1"
"null","","null","","html-keyboard-response","103","106429","0.0-3.0-4.0-0.20","1","0pu18xqt8ws6","21","女性","","","","","",""
"null","<p style=""font-size: 48px"">+</p>","null","","html-keyboard-response","104","106935","0.0-3.0-4.0-1.20","1","0pu18xqt8ws6","21","女性","","","","","",""
"556.8999999761581","<p style=""font-size: 48px"">>><>></p>","f","flanker_main","html-keyboard-response","105","107493","0.0-3.0-4.0-2.20","1","0pu18xqt8ws6","21","女性","","","","不一致","f","1"
"null","","null","","html-keyboard-response","106","107998","0.0-3.0-4.0-0.21","1","0pu18xqt8ws6","21","女性","","","","","",""
"null","<p style=""font-size: 48px"">+</p>","null","","html-keyboard-response","107","108504","0.0-3.0-4.0-1.21","1","0pu18xqt8ws6","21","女性","","","","","",""
"411.6999999284744","<p style=""font-size: 48px"">>>>>></p>","j","flanker_main","html-keyboard-response","108","108916","0.0-3.0-4.0-2.21","1","0pu18xqt8ws6","21","女性","","","","一致","j","1"
"null","","null","","html-keyboard-response","109","109421","0.0-3.0-4.0-0.22","1","0pu18xqt8ws6","21","女性","","","","","",""
"null","<p style=""font-size: 48px"">+</p>","null","","html-keyboard-response","110","109927","0.0-3.0-4.0-1.22","1","0pu18xqt8ws6","21","女性","","","","","",""
"396.2999999523163","<p style=""font-size: 48px""><<<<<</p>","f","flanker_main","html-keyboard-response","111","110324","0.0-3.0-4.0-2.22","1","0pu18xqt8ws6","21","女性","","","","一致","f","1"
"null","","null","","html-keyboard-response","112","110830","0.0-3.0-4.0-0.23","1","0pu18xqt8ws6","21","女性","","","","","",""
"null","<p style=""font-size: 48px"">+</p>","null","","html-keyboard-response","113","111336","0.0-3.0-4.0-1.23","1","0pu18xqt8ws6","21","女性","","","","","",""
"452.2000000476837","<p style=""font-size: 48px"">-->--</p>","j","flanker_main","html-keyboard-response","114","111789","0.0-3.0-4.0-2.23","1","0pu18xqt8ws6","21","女性","","","","中性","j","1"
"null","","null","","html-keyboard-response","115","112294","0.0-3.0-4.0-0.24","1","0pu18xqt8ws6","21","女性","","","","","",""
"null","<p style=""font-size: 48px"">+</p>","null","","html-keyboard-response","116","112800","0.0-3.0-4.0-1.24","1","0pu18xqt8ws6","21","女性","","","","","",""
"420.10000002384186","<p style=""font-size: 48px"">--<--</p>","f","flanker_main","html-keyboard-response","117","113221","0.0-3.0-4.0-2.24","1","0pu18xqt8ws6","21","女性","","","","中性","f","1"
"null","","null","","html-keyboard-response","118","113726","0.0-3.0-4.0-0.25","1","0pu18xqt8ws6","21","女性","","","","","",""
"null","<p style=""font-size: 48px"">+</p>","null","","html-keyboard-response","119","114232","0.0-3.0-4.0-1.25","1","0pu18xqt8ws6","21","女性","","","","","",""
"452","<p style=""font-size: 48px"">>>>>></p>","j","flanker_main","html-keyboard-response","120","114684","0.0-3.0-4.0-2.25","1","0pu18xqt8ws6","21","女性","","","","一致","j","1"
"null","","null","","html-keyboard-response","121","115190","0.0-3.0-4.0-0.26","1","0pu18xqt8ws6","21","女性","","","","","",""
"null","<p style=""font-size: 48px"">+</p>","null","","html-keyboard-response","122","115695","0.0-3.0-4.0-1.26","1","0pu18xqt8ws6","21","女性","","","","","",""
"468.2999999523163","<p style=""font-size: 48px"">-->--</p>","j","flanker_main","html-keyboard-response","123","116164","0.0-3.0-4.0-2.26","1","0pu18xqt8ws6","21","女性","","","","中性","j","1"
"null","","null","","html-keyboard-response","124","116665","0.0-3.0-4.0-0.27","1","0pu18xqt8ws6","21","女性","","","","","",""
"null","<p style=""font-size: 48px"">+</p>","null","","html-keyboard-response","125","117169","0.0-3.0-4.0-1.27","1","0pu18xqt8ws6","21","女性","","","","","",""
"419.5","<p style=""font-size: 48px"">>>>>></p>","j","flanker_main","html-keyboard-response","126","117589","0.0-3.0-4.0-2.27","1","0pu18xqt8ws6","21","女性","","","","一致","j","1"
"null","","null","","html-keyboard-response","127","118094","0.0-3.0-4.0-0.28","1","0pu18xqt8ws6","21","女性","","","","","",""
"null","<p style=""font-size: 48px"">+</p>","null","","html-keyboard-response","128","118600","0.0-3.0-4.0-1.28","1","0pu18xqt8ws6","21","女性","","","","","",""
"563.7000000476837","<p style=""font-size: 48px"">>><>></p>","f","flanker_main","html-keyboard-response","129","119165","0.0-3.0-4.0-2.28","1","0pu18xqt8ws6","21","女性","","","","不一致","f","1"
"null","","null","","html-keyboard-response","130","119666","0.0-3.0-4.0-0.29","1","0pu18xqt8ws6","21","女性","","","","","",""
"null","<p style=""font-size: 48px"">+</p>","null","","html-keyboard-response","131","120167","0.0-3.0-4.0-1.29","1","0pu18xqt8ws6","21","女性","","","","","",""
"460.2000000476837","<p style=""font-size: 48px"">-->--</p>","j","flanker_main","html-keyboard-response","132","120628","0.0-3.0-4.0-2.29","1","0pu18xqt8ws6","21","女性","","","","中性","j","1"
"null","","null","","html-keyboard-response","133","121130","0.0-3.0-4.0-0.30","1","0pu18xqt8ws6","21","女性","","","","","",""
"null","<p style=""font-size: 48px"">+</p>","null","","html-keyboard-response","134","121631","0.0-3.0-4.0-1.30","1","0pu18xqt8ws6","21","女性","","","","","",""
"541.1999999284744","<p style=""font-size: 48px"">>><>></p>","f","flanker_main","html-keyboard-response","135","122173","0.0-3.0-4.0-2.30","1","0pu18xqt8ws6","21","女性","","","","不一致","f","1"
"null","","null","","html-keyboard-response","136","122678","0.0-3.0-4.0-0.31","1","0pu18xqt8ws6","21","女性","","","","","",""
"null","<p style=""font-size: 48px"">+</p>","null","","html-keyboard-response","137","123179","0.0-3.0-4.0-1.31","1","0pu18xqt8ws6","21","女性","","","","","",""
"592.8000000715256","<p style=""font-size: 48px"">>><>></p>","f","flanker_main","html-keyboard-response","138","123773","0.0-3.0-4.0-2.31","1","0pu18xqt8ws6","21","女性","","","","不一致","f","1"
"null","","null","","html-keyboard-response","139","124274","0.0-3.0-4.0-0.32","1","0pu18xqt8ws6","21","女性","","","","","",""
"null","<p style=""font-size: 48px"">+</p>","null","","html-keyboard-response","140","124775","0.0-3.0-4.0-1.32","1","0pu18xqt8ws6","21","女性","","","","","",""
"485.39999997615814","<p style=""font-size: 48px""><<<<<</p>","f","flanker_main","html-keyboard-response","141","125261","0.0-3.0-4.0-2.32","1","0pu18xqt8ws6","21","女性","","","","一致","f","1"
"null","","null","","html-keyboard-response","142","125766","0.0-3.0-4.0-0.33","1","0pu18xqt8ws6","21","女性","","","","","",""
"null","<p style=""font-size: 48px"">+</p>","null","","html-keyboard-response","143","126272","0.0-3.0-4.0-1.33","1","0pu18xqt8ws6","21","女性","","","","","",""
"460.2000000476837","<p style=""font-size: 48px"">-->--</p>","j","flanker_main","html-keyboard-response","144","126733","0.0-3.0-4.0-2.33","1","0pu18xqt8ws6","21","女性","","","","中性","j","1"
"null","","null","","html-keyboard-response","145","127238","0.0-3.0-4.0-0.34","1","0pu18xqt8ws6","21","女性","","","","","",""
"null","<p style=""font-size: 48px"">+</p>","null","","html-keyboard-response","146","127739","0.0-3.0-4.0-1.34","1","0pu18xqt8ws6","21","女性","","","","","",""
"586","<p style=""font-size: 48px""><<><<</p>","j","flanker_main","html-keyboard-response","147","128326","0.0-3.0-4.0-2.34","1","0pu18xqt8ws6","21","女性","","","","不一致","j","1"
"null","","null","","html-keyboard-response","148","128827","0.0-3.0-4.0-0.35","1","0pu18xqt8ws6","21","女性","","","","","",""
"null","<p style=""font-size: 48px"">+</p>","null","","html-keyboard-response","149","129329","0.0-3.0-4.0-1.35","1","0pu18xqt8ws6","21","女性","","","","","",""
"451.2999999523163","<p style=""font-size: 48px""><<<<<</p>","f","flanker_main","html-keyboard-response","150","129781","0.0-3.0-4.0-2.35","1","0pu18xqt8ws6","21","女性","","","","一致","f","1"
"null","","null","","html-keyboard-response","151","130282","0.0-3.0-4.0-0.36","1","0pu18xqt8ws6","21","女性","","","","","",""
"null","<p style=""font-size: 48px"">+</p>","null","","html-keyboard-response","152","130788","0.0-3.0-4.0-1.36","1","0pu18xqt8ws6","21","女性","","","","","",""
"456.2999999523163","<p style=""font-size: 48px"">--<--</p>","f","flanker_main","html-keyboard-response","153","131245","0.0-3.0-4.0-2.36","1","0pu18xqt8ws6","21","女性","","","","中性","f","1"
"null","","null","","html-keyboard-response","154","131750","0.0-3.0-4.0-0.37","1","0pu18xqt8ws6","21","女性","","","","","",""
"null","<p style=""font-size: 48px"">+</p>","null","","html-keyboard-response","155","132256","0.0-3.0-4.0-1.37","1","0pu18xqt8ws6","21","女性","","","","","",""
"396.40000009536743","<p style=""font-size: 48px""><<<<<</p>","f","flanker_main","html-keyboard-response","156","132653","0.0-3.0-4.0-2.37","1","0pu18xqt8ws6","21","女性","","","","一致","f","1"
"null","","null","","html-keyboard-response","157","133155","0.0-3.0-4.0-0.38","1","0pu18xqt8ws6","21","女性","","","","","",""
"null","<p style=""font-size: 48px"">+</p>","null","","html-keyboard-response","158","133657","0.0-3.0-4.0-1.38","1","0pu18xqt8ws6","21","女性","","","","","",""
"523.2999999523163","<p style=""font-size: 48px"">>><>></p>","f","flanker_main","html-keyboard-response","159","134181","0.0-3.0-4.0-2.38","1","0pu18xqt8ws6","21","女性","","","","不一致","f","1"
"null","","null","","html-keyboard-response","160","134686","0.0-3.0-4.0-0.39","1","0pu18xqt8ws6","21","女性","","","","","",""
"null","<p style=""font-size: 48px"">+</p>","null","","html-keyboard-response","161","135187","0.0-3.0-4.0-1.39","1","0pu18xqt8ws6","21","女性","","","","","",""
"433.2999999523163","<p style=""font-size: 48px"">--<--</p>","f","flanker_main","html-keyboard-response","162","135621","0.0-3.0-4.0-2.39","1","0pu18xqt8ws6","21","女性","","","","中性","f","1"
"null","","null","","html-keyboard-response","163","136126","0.0-3.0-4.0-0.40","1","0pu18xqt8ws6","21","女性","","","","","",""
"null","<p style=""font-size: 48px"">+</p>","null","","html-keyboard-response","164","136632","0.0-3.0-4.0-1.40","1","0pu18xqt8ws6","21","女性","","","","","",""
"428.1999999284744","<p style=""font-size: 48px"">>>>>></p>","j","flanker_main","html-keyboard-response","165","137061","0.0-3.0-4.0-2.40","1","0pu18xqt8ws6","21","女性","","","","一致","j","1"
"null","","null","","html-keyboard-response","166","137562","0.0-3.0-4.0-0.41","1","0pu18xqt8ws6","21","女性","","","","","",""
"null","<p style=""font-size: 48px"">+</p>","null","","html-keyboard-response","167","138065","0.0-3.0-4.0-1.41","1","0pu18xqt8ws6","21","女性","","","","","",""
"412","<p style=""font-size: 48px"">>>>>></p>","j","flanker_main","html-keyboard-response","168","138478","0.0-3.0-4.0-2.41","1","0pu18xqt8ws6","21","女性","","","","一致","j","1"
"null","","null","","html-keyboard-response","169","138983","0.0-3.0-4.0-0.42","1","0pu18xqt8ws6","21","女性","","","","","",""
"null","<p style=""font-size: 48px"">+</p>","null","","html-keyboard-response","170","139485","0.0-3.0-4.0-1.42","1","0pu18xqt8ws6","21","女性","","","","","",""
"463.2999999523163","<p style=""font-size: 48px""><<<<<</p>","f","flanker_main","html-keyboard-response","171","139949","0.0-3.0-4.0-2.42","1","0pu18xqt8ws6","21","女性","","","","一致","f","1"
"null","","null","","html-keyboard-response","172","140454","0.0-3.0-4.0-0.43","1","0pu18xqt8ws6","21","女性","","","","","",""
"null","<p style=""font-size: 48px"">+</p>","null","","html-keyboard-response","173","140960","0.0-3.0-4.0-1.43","1","0pu18xqt8ws6","21","女性","","","","","",""
"564.1999999284744","<p style=""font-size: 48px""><<><<</p>","j","flanker_main","html-keyboard-response","174","141525","0.0-3.0-4.0-2.43","1","0pu18xqt8ws6","21","女性","","","","不一致","j","1"
"null","","null","","html-keyboard-response","175","142026","0.0-3.0-4.0-0.44","1","0pu18xqt8ws6","21","女性","","","","","",""
"null","<p style=""font-size: 48px"">+</p>","null","","html-keyboard-response","176","142532","0.0-3.0-4.0-1.44","1","0pu18xqt8ws6","21","女性","","","","","",""
"440.5","<p style=""font-size: 48px""><<<<<</p>","f","flanker_main","html-keyboard-response","177","142973","0.0-3.0-4.0-2.44","1","0pu18xqt8ws6","21","女性","","","","一致","f","1"
"null","","null","","html-keyboard-response","178","143478","0.0-3.0-4.0-0.45","1","0pu18xqt8ws6","21","女性","","","","","",""
"null","<p style=""font-size: 48px"">+</p>","null","","html-keyboard-response","179","143984","0.0-3.0-4.0-1.45","1","0pu18xqt8ws6","21","女性","","","","","",""
"484","<p style=""font-size: 48px"">--<--</p>","f","flanker_main","html-keyboard-response","180","144469","0.0-3.0-4.0-2.45","1","0pu18xqt8ws6","21","女性","","","","中性","f","1"
"null","","null","","html-keyboard-response","181","144974","0.0-3.0-4.0-0.46","1","0pu18xqt8ws6","21","女性","","","","","",""
"null","<p style=""font-size: 48px"">+</p>","null","","html-keyboard-response","182","145480","0.0-3.0-4.0-1.46","1","0pu18xqt8ws6","21","女性","","","","","",""
"428.7000000476837","<p style=""font-size: 48px""><<<<<</p>","f","flanker_main","html-keyboard-response","183","145910","0.0-3.0-4.0-2.46","1","0pu18xqt8ws6","21","女性","","","","一致","f","1"
"null","","null","","html-keyboard-response","184","146410","0.0-3.0-4.0-0.47","1","0pu18xqt8ws6","21","女性","","","","","",""
"null","<p style=""font-size: 48px"">+</p>","null","","html-keyboard-response","185","146913","0.0-3.0-4.0-1.47","1","0pu18xqt8ws6","21","女性","","","","","",""
"412.40000009536743","<p style=""font-size: 48px"">-->--</p>","j","flanker_main","html-keyboard-response","186","147326","0.0-3.0-4.0-2.47","1","0pu18xqt8ws6","21","女性","","","","中性","j","1"
"null","","null","","html-keyboard-response","187","147831","0.0-3.0-4.0-0.48","1","0pu18xqt8ws6","21","女性","","","","","",""
"null","<p style=""font-size: 48px"">+</p>","null","","html-keyboard-response","188","148337","0.0-3.0-4.0-1.48","1","0pu18xqt8ws6","21","女性","","","","","",""
"412.60000002384186","<p style=""font-size: 48px""><<<<<</p>","f","flanker_main","html-keyboard-response","189","148750","0.0-3.0-4.0-2.48","1","0pu18xqt8ws6","21","女性","","","","一致","f","1"
"null","","null","","html-keyboard-response","190","149255","0.0-3.0-4.0-0.49","1","0pu18xqt8ws6","21","女性","","","","","",""
"null","<p style=""font-size: 48px"">+</p>","null","","html-keyboard-response","191","149760","0.0-3.0-4.0-1.49","1","0pu18xqt8ws6","21","女性","","","","","",""
"603.6999999284744","<p style=""font-size: 48px"">>><>></p>","f","flanker_main","html-keyboard-response","192","150365","0.0-3.0-4.0-2.49","1","0pu18xqt8ws6","21","女性","","","","不一致","f","1"
"null","","null","","html-keyboard-response","193","150870","0.0-3.0-4.0-0.50","1","0pu18xqt8ws6","21","女性","","","","","",""
"null","<p style=""font-size: 48px"">+</p>","null","","html-keyboard-response","194","151371","0.0-3.0-4.0-1.50","1","0pu18xqt8ws6","21","女性","","","","","",""
"497.6999999284744","<p style=""font-size: 48px"">>><>></p>","f","flanker_main","html-keyboard-response","195","151869","0.0-3.0-4.0-2.50","1","0pu18xqt8ws6","21","女性","","","","不一致","f","1"
"null","","null","","html-keyboard-response","196","152375","0.0-3.0-4.0-0.51","1","0pu18xqt8ws6","21","女性","","","","","",""
"null","<p style=""font-size: 48px"">+</p>","null","","html-keyboard-response","197","152878","0.0-3.0-4.0-1.51","1","0pu18xqt8ws6","21","女性","","","","","",""
"487.1999999284744","<p style=""font-size: 48px"">-->--</p>","j","flanker_main","html-keyboard-response","198","153366","0.0-3.0-4.0-2.51","1","0pu18xqt8ws6","21","女性","","","","中性","j","1"
"null","","null","","html-keyboard-response","199","153870","0.0-3.0-4.0-0.52","1","0pu18xqt8ws6","21","女性","","","","","",""
"null","<p style=""font-size: 48px"">+</p>","null","","html-keyboard-response","200","154376","0.0-3.0-4.0-1.52","1","0pu18xqt8ws6","21","女性","","","","","",""
"469.89999997615814","<p style=""font-size: 48px"">-->--</p>","j","flanker_main","html-keyboard-response","201","154846","0.0-3.0-4.0-2.52","1","0pu18xqt8ws6","21","女性","","","","中性","j","1"
"null","","null","","html-keyboard-response","202","155349","0.0-3.0-4.0-0.53","1","0pu18xqt8ws6","21","女性","","","","","",""
"null","<p style=""font-size: 48px"">+</p>","null","","html-keyboard-response","203","155852","0.0-3.0-4.0-1.53","1","0pu18xqt8ws6","21","女性","","","","","",""
"513.1000000238419","<p style=""font-size: 48px"">>><>></p>","f","flanker_main","html-keyboard-response","204","156366","0.0-3.0-4.0-2.53","1","0pu18xqt8ws6","21","女性","","","","不一致","f","1"
"null","","null","","html-keyboard-response","205","156868","0.0-3.0-4.0-0.54","1","0pu18xqt8ws6","21","女性","","","","","",""
"null","<p style=""font-size: 48px"">+</p>","null","","html-keyboard-response","206","157369","0.0-3.0-4.0-1.54","1","0pu18xqt8ws6","21","女性","","","","","",""
"587.8999999761581","<p style=""font-size: 48px""><<><<</p>","j","flanker_main","html-keyboard-response","207","157958","0.0-3.0-4.0-2.54","1","0pu18xqt8ws6","21","女性","","","","不一致","j","1"
"null","","null","","html-keyboard-response","208","158463","0.0-3.0-4.0-0.55","1","0pu18xqt8ws6","21","女性","","","","","",""
"null","<p style=""font-size: 48px"">+</p>","null","","html-keyboard-response","209","158965","0.0-3.0-4.0-1.55","1","0pu18xqt8ws6","21","女性","","","","","",""
"625.2000000476837","<p style=""font-size: 48px""><<><<</p>","j","flanker_main","html-keyboard-response","210","159591","0.0-3.0-4.0-2.55","1","0pu18xqt8ws6","21","女性","","","","不一致","j","1"
"null","","null","","html-keyboard-response","211","160096","0.0-3.0-4.0-0.56","1","0pu18xqt8ws6","21","女性","","","","","",""
"null","<p style=""font-size: 48px"">+</p>","null","","html-keyboard-response","212","160602","0.0-3.0-4.0-1.56","1","0pu18xqt8ws6","21","女性","","","","","",""
"547.3999999761581","<p style=""font-size: 48px"">>><>></p>","f","flanker_main","html-keyboard-response","213","161150","0.0-3.0-4.0-2.56","1","0pu18xqt8ws6","21","女性","","","","不一致","f","1"
"null","","null","","html-keyboard-response","214","161655","0.0-3.0-4.0-0.57","1","0pu18xqt8ws6","21","女性","","","","","",""
"null","<p style=""font-size: 48px"">+</p>","null","","html-keyboard-response","215","162156","0.0-3.0-4.0-1.57","1","0pu18xqt8ws6","21","女性","","","","","",""
"465.39999997615814","<p style=""font-size: 48px"">--<--</p>","f","flanker_main","html-keyboard-response","216","162622","0.0-3.0-4.0-2.57","1","0pu18xqt8ws6","21","女性","","","","中性","f","1"
"null","","null","","html-keyboard-response","217","163127","0.0-3.0-4.0-0.58","1","0pu18xqt8ws6","21","女性","","","","","",""
"null","<p style=""font-size: 48px"">+</p>","null","","html-keyboard-response","218","163633","0.0-3.0-4.0-1.58","1","0pu18xqt8ws6","21","女性","","","","","",""
"452.2999999523163","<p style=""font-size: 48px"">>>>>></p>","j","flanker_main","html-keyboard-response","219","164086","0.0-3.0-4.0-2.58","1","0pu18xqt8ws6","21","女性","","","","一致","j","1"
"null","","null","","html-keyboard-response","220","164591","0.0-3.0-4.0-0.59","1","0pu18xqt8ws6","21","女性","","","","","",""
"null","<p style=""font-size: 48px"">+</p>","null","","html-keyboard-response","221","165097","0.0-3.0-4.0-1.59","1","0pu18xqt8ws6","21","女性","","","","","",""
"476","<p style=""font-size: 48px"">-->--</p>","j","flanker_main","html-keyboard-response","222","165574","0.0-3.0-4.0-2.59","1","0pu18xqt8ws6","21","女性","","","","中性","j","1"
"","","","","call-function","223","165574","0.0-3.0-5.0","1","0pu18xqt8ws6","21","女性","","","","","",""
"5028.299999952316","次のページには，ふだんのあなたの様子について尋ねる文章が表示されます。それぞれについて，どの程度あてはまるかを<br>「あてはまらない」「どちらかと言えばあてはまらない」「どちらかと言えばあてはまる」「あてはまる」<br>の4つの選択肢から1つ選んで回答してください。<br><br>準備ができたらスペースキーを押して回答を開始してください。"," ","instruction","html-keyboard-response","224","170603","0.0-4.0","1","0pu18xqt8ws6","21","女性","","","","","",""
"123459.80000007153","","{""Q4"":3,""Q5"":3,""Q11"":3,""Q8"":1,""Q17"":0,""Q20"":2,""Q19"":2,""Q3"":2,""Q1"":0,""Q10"":3,""Q9"":0,""Q14"":2,""Q6"":2,""Q7"":2,""Q18"":1,""Q15"":2,""Q13"":2,""Q16"":1,""Q2"":1,""Q12"":2}","bis_bas","survey-likert","225","294072","0.0-5.0","1","0pu18xqt8ws6","21","女性","","[3,4,10,7,16,19,18,2,0,9,8,13,5,6,17,14,12,15,1,11]","","","",""
