"rt","stimulus","response","task","trial_type","trial_index","time_elapsed","internal_node_id","CB","tempID","age","sex","success","question_order","value","condition","key","correct"
"30531.89999999851","これから実験をおこないます（10分程度）。<br>実験の最初に年齢と性別の入力が求められますが，回答に関係なくランダムなデータが保存されます。<br>授業のデモということで個人の特定可能性が高いことを考慮し，このような措置をとりました。<br>フランカー課題と質問紙はご自身の遂行成績・点数が保存されます。<br>収集したデータは分析のデモに使用します。個人が特定されることはないですし，<br>リアルなデータの方が練習にもなるはずなので，これらの課題は真剣に取り組んでもらえれば幸いです。"," ","instruction","html-keyboard-response","0","30534","0.0-0.0","2","31h414f13x6x","24","男性","","","","","",""
"","","","instruction","fullscreen","1","35773","0.0-1.0","2","31h414f13x6x","24","男性","true","","","","",""
"5693.19999999553","","{""age"":24}","par_info","survey-text","2","41470","0.0-2.0-0.0","2","31h414f13x6x","24","男性","","","","","",""
"3833","","{""sex"":""男性""}","par_info","survey-multi-choice","3","45304","0.0-2.0-1.0","2","31h414f13x6x","24","男性","","[0]","","","",""
"7611.20000000298","次のページには，ふだんのあなたの様子について尋ねる文章が表示されます。それぞれについて，どの程度あてはまるかを<br>「あてはまらない」「どちらかと言えばあてはまらない」「どちらかと言えばあてはまる」「あてはまる」<br>の4つの選択肢から1つ選んで回答してください。<br><br>準備ができたらスペースキーを押して回答を開始してください。"," ","instruction","html-keyboard-response","4","52916","0.0-3.0","2","31h414f13x6x","24","男性","","","","","",""
"122624.29999999702","","{""Q18"":1,""Q2"":3,""Q17"":2,""Q8"":0,""Q12"":0,""Q6"":1,""Q13"":0,""Q1"":2,""Q19"":0,""Q3"":2,""Q11"":0,""Q7"":2,""Q5"":1,""Q10"":0,""Q9"":1,""Q14"":2,""Q20"":1,""Q4"":2,""Q15"":2,""Q16"":0}","bis_bas","survey-likert","5","175544","0.0-4.0","2","31h414f13x6x","24","男性","","[17,1,16,7,11,5,12,0,18,2,10,6,4,9,8,13,19,3,14,15]","","","",""
"","","","","call-function","6","175544","0.0-5.0-0.0","2","31h414f13x6x","24","男性","","","","","",""
"15818.39999999851","これから画面上に５つの矢印（>>>>>など）が表示されます。<br>中央の矢印が左向き（<）なら「f」キーを<br>中央の矢印が右向き（>）なら「j」キーを<br>なるべく早く，正確に押してください<br><br>準備ができたら「f」キーか「j」キーを押して練習を開始してください。","f","instruction","html-keyboard-response","7","191364","0.0-5.0-1.0","2","31h414f13x6x","24","男性","","","","","",""
"null","","null","","html-keyboard-response","8","191878","0.0-5.0-2.0-0.0","2","31h414f13x6x","24","男性","","","","","",""
"null","<p style=""font-size: 48px"">+</p>","null","","html-keyboard-response","9","192385","0.0-5.0-2.0-1.0","2","31h414f13x6x","24","男性","","","","","",""
"3633","<p style=""font-size: 48px"">>><>></p>","j","flanker_practice","html-keyboard-response","10","196020","0.0-5.0-2.0-2.0","2","31h414f13x6x","24","男性","","","","不一致","f","0"
"null","","null","","html-keyboard-response","11","196534","0.0-5.0-2.0-0.1","2","31h414f13x6x","24","男性","","","","","",""
"null","<p style=""font-size: 48px"">+</p>","null","","html-keyboard-response","12","197038","0.0-5.0-2.0-1.1","2","31h414f13x6x","24","男性","","","","","",""
"1042.1999999955297","<p style=""font-size: 48px""><<><<</p>","f","flanker_practice","html-keyboard-response","13","198081","0.0-5.0-2.0-2.1","2","31h414f13x6x","24","男性","","","","不一致","j","0"
"null","","null","","html-keyboard-response","14","198589","0.0-5.0-2.0-0.2","2","31h414f13x6x","24","男性","","","","","",""
"null","<p style=""font-size: 48px"">+</p>","null","","html-keyboard-response","15","199092","0.0-5.0-2.0-1.2","2","31h414f13x6x","24","男性","","","","","",""
"592.1000000014901","<p style=""font-size: 48px"">>>>>></p>","j","flanker_practice","html-keyboard-response","16","199685","0.0-5.0-2.0-2.2","2","31h414f13x6x","24","男性","","","","一致","j","1"
"null","","null","","html-keyboard-response","17","200188","0.0-5.0-2.0-0.3","2","31h414f13x6x","24","男性","","","","","",""
"null","<p style=""font-size: 48px"">+</p>","null","","html-keyboard-response","18","200691","0.0-5.0-2.0-1.3","2","31h414f13x6x","24","男性","","","","","",""
"593.6000000014901","<p style=""font-size: 48px"">-->--</p>","j","flanker_practice","html-keyboard-response","19","201286","0.0-5.0-2.0-2.3","2","31h414f13x6x","24","男性","","","","中性","j","1"
"null","","null","","html-keyboard-response","20","201794","0.0-5.0-2.0-0.4","2","31h414f13x6x","24","男性","","","","","",""
"null","<p style=""font-size: 48px"">+</p>","null","","html-keyboard-response","21","202297","0.0-5.0-2.0-1.4","2","31h414f13x6x","24","男性","","","","","",""
"610.3000000044703","<p style=""font-size: 48px"">>><>></p>","j","flanker_practice","html-keyboard-response","22","202908","0.0-5.0-2.0-2.4","2","31h414f13x6x","24","男性","","","","不一致","f","0"
"null","","null","","html-keyboard-response","23","203416","0.0-5.0-2.0-0.5","2","31h414f13x6x","24","男性","","","","","",""
"null","<p style=""font-size: 48px"">+</p>","null","","html-keyboard-response","24","203923","0.0-5.0-2.0-1.5","2","31h414f13x6x","24","男性","","","","","",""
"624.1000000014901","<p style=""font-size: 48px"">--<--</p>","f","flanker_practice","html-keyboard-response","25","204548","0.0-5.0-2.0-2.5","2","31h414f13x6x","24","男性","","","","中性","f","1"
"null","","null","","html-keyboard-response","26","205060","0.0-5.0-2.0-0.6","2","31h414f13x6x","24","男性","","","","","",""
"null","<p style=""font-size: 48px"">+</p>","null","","html-keyboard-response","27","205564","0.0-5.0-2.0-1.6","2","31h414f13x6x","24","男性","","","","","",""
"542.7000000029802","<p style=""font-size: 48px""><<<<<</p>","f","flanker_practice","html-keyboard-response","28","206108","0.0-5.0-2.0-2.6","2","31h414f13x6x","24","男性","","","","一致","f","1"
"null","","null","","html-keyboard-response","29","206620","0.0-5.0-2.0-0.7","2","31h414f13x6x","24","男性","","","","","",""
"null","<p style=""font-size: 48px"">+</p>","null","","html-keyboard-response","30","207129","0.0-5.0-2.0-1.7","2","31h414f13x6x","24","男性","","","","","",""
"515.8999999985099","<p style=""font-size: 48px""><<<<<</p>","f","flanker_practice","html-keyboard-response","31","207646","0.0-5.0-2.0-2.7","2","31h414f13x6x","24","男性","","","","一致","f","1"
"null","","null","","html-keyboard-response","32","208148","0.0-5.0-2.0-0.8","2","31h414f13x6x","24","男性","","","","","",""
"null","<p style=""font-size: 48px"">+</p>","null","","html-keyboard-response","33","208653","0.0-5.0-2.0-1.8","2","31h414f13x6x","24","男性","","","","","",""
"489.79999999701977","<p style=""font-size: 48px"">>>>>></p>","j","flanker_practice","html-keyboard-response","34","209143","0.0-5.0-2.0-2.8","2","31h414f13x6x","24","男性","","","","一致","j","1"
"null","","null","","html-keyboard-response","35","209646","0.0-5.0-2.0-0.9","2","31h414f13x6x","24","男性","","","","","",""
"null","<p style=""font-size: 48px"">+</p>","null","","html-keyboard-response","36","210163","0.0-5.0-2.0-1.9","2","31h414f13x6x","24","男性","","","","","",""
"663.7000000029802","<p style=""font-size: 48px""><<><<</p>","f","flanker_practice","html-keyboard-response","37","210827","0.0-5.0-2.0-2.9","2","31h414f13x6x","24","男性","","","","不一致","j","0"
"null","","null","","html-keyboard-response","38","211335","0.0-5.0-2.0-0.10","2","31h414f13x6x","24","男性","","","","","",""
"null","<p style=""font-size: 48px"">+</p>","null","","html-keyboard-response","39","211845","0.0-5.0-2.0-1.10","2","31h414f13x6x","24","男性","","","","","",""
"560.2999999970198","<p style=""font-size: 48px"">--<--</p>","f","flanker_practice","html-keyboard-response","40","212406","0.0-5.0-2.0-2.10","2","31h414f13x6x","24","男性","","","","中性","f","1"
"null","","null","","html-keyboard-response","41","212908","0.0-5.0-2.0-0.11","2","31h414f13x6x","24","男性","","","","","",""
"null","<p style=""font-size: 48px"">+</p>","null","","html-keyboard-response","42","213422","0.0-5.0-2.0-1.11","2","31h414f13x6x","24","男性","","","","","",""
"524.3999999985099","<p style=""font-size: 48px"">-->--</p>","j","flanker_practice","html-keyboard-response","43","213947","0.0-5.0-2.0-2.11","2","31h414f13x6x","24","男性","","","","中性","j","1"
"2168.60000000149","それでは本番を行います。<br>準備ができたら「f」キーか「j」キーを押して課題を開始してください。","j","instruction","html-keyboard-response","44","216117","0.0-5.0-3.0","2","31h414f13x6x","24","男性","","","","","",""
"null","","null","","html-keyboard-response","45","216618","0.0-5.0-4.0-0.0","2","31h414f13x6x","24","男性","","","","","",""
"null","<p style=""font-size: 48px"">+</p>","null","","html-keyboard-response","46","217132","0.0-5.0-4.0-1.0","2","31h414f13x6x","24","男性","","","","","",""
"500.6000000014901","<p style=""font-size: 48px"">>>>>></p>","j","flanker_main","html-keyboard-response","47","217634","0.0-5.0-4.0-2.0","2","31h414f13x6x","24","男性","","","","一致","j","1"
"null","","null","","html-keyboard-response","48","218147","0.0-5.0-4.0-0.1","2","31h414f13x6x","24","男性","","","","","",""
"null","<p style=""font-size: 48px"">+</p>","null","","html-keyboard-response","49","218651","0.0-5.0-4.0-1.1","2","31h414f13x6x","24","男性","","","","","",""
"436.19999999552965","<p style=""font-size: 48px"">-->--</p>","j","flanker_main","html-keyboard-response","50","219088","0.0-5.0-4.0-2.1","2","31h414f13x6x","24","男性","","","","中性","j","1"
"null","","null","","html-keyboard-response","51","219593","0.0-5.0-4.0-0.2","2","31h414f13x6x","24","男性","","","","","",""
"null","<p style=""font-size: 48px"">+</p>","null","","html-keyboard-response","52","220101","0.0-5.0-4.0-1.2","2","31h414f13x6x","24","男性","","","","","",""
"584.6999999955297","<p style=""font-size: 48px""><<><<</p>","f","flanker_main","html-keyboard-response","53","220687","0.0-5.0-4.0-2.2","2","31h414f13x6x","24","男性","","","","不一致","j","0"
"null","","null","","html-keyboard-response","54","221196","0.0-5.0-4.0-0.3","2","31h414f13x6x","24","男性","","","","","",""
"null","<p style=""font-size: 48px"">+</p>","null","","html-keyboard-response","55","221697","0.0-5.0-4.0-1.3","2","31h414f13x6x","24","男性","","","","","",""
"505.79999999701977","<p style=""font-size: 48px"">--<--</p>","f","flanker_main","html-keyboard-response","56","222203","0.0-5.0-4.0-2.3","2","31h414f13x6x","24","男性","","","","中性","f","1"
"null","","null","","html-keyboard-response","57","222718","0.0-5.0-4.0-0.4","2","31h414f13x6x","24","男性","","","","","",""
"null","<p style=""font-size: 48px"">+</p>","null","","html-keyboard-response","58","223234","0.0-5.0-4.0-1.4","2","31h414f13x6x","24","男性","","","","","",""
"487.20000000298023","<p style=""font-size: 48px"">--<--</p>","f","flanker_main","html-keyboard-response","59","223722","0.0-5.0-4.0-2.4","2","31h414f13x6x","24","男性","","","","中性","f","1"
"null","","null","","html-keyboard-response","60","224225","0.0-5.0-4.0-0.5","2","31h414f13x6x","24","男性","","","","","",""
"null","<p style=""font-size: 48px"">+</p>","null","","html-keyboard-response","61","224737","0.0-5.0-4.0-1.5","2","31h414f13x6x","24","男性","","","","","",""
"459.8999999985099","<p style=""font-size: 48px"">-->--</p>","j","flanker_main","html-keyboard-response","62","225198","0.0-5.0-4.0-2.5","2","31h414f13x6x","24","男性","","","","中性","j","1"
"null","","null","","html-keyboard-response","63","225714","0.0-5.0-4.0-0.6","2","31h414f13x6x","24","男性","","","","","",""
"null","<p style=""font-size: 48px"">+</p>","null","","html-keyboard-response","64","226219","0.0-5.0-4.0-1.6","2","31h414f13x6x","24","男性","","","","","",""
"513.8000000044703","<p style=""font-size: 48px""><<<<<</p>","f","flanker_main","html-keyboard-response","65","226734","0.0-5.0-4.0-2.6","2","31h414f13x6x","24","男性","","","","一致","f","1"
"null","","null","","html-keyboard-response","66","227236","0.0-5.0-4.0-0.7","2","31h414f13x6x","24","男性","","","","","",""
"null","<p style=""font-size: 48px"">+</p>","null","","html-keyboard-response","67","227742","0.0-5.0-4.0-1.7","2","31h414f13x6x","24","男性","","","","","",""
"425.8999999985099","<p style=""font-size: 48px"">-->--</p>","j","flanker_main","html-keyboard-response","68","228169","0.0-5.0-4.0-2.7","2","31h414f13x6x","24","男性","","","","中性","j","1"
"null","","null","","html-keyboard-response","69","228681","0.0-5.0-4.0-0.8","2","31h414f13x6x","24","男性","","","","","",""
"null","<p style=""font-size: 48px"">+</p>","null","","html-keyboard-response","70","229184","0.0-5.0-4.0-1.8","2","31h414f13x6x","24","男性","","","","","",""
"478.69999999552965","<p style=""font-size: 48px""><<<<<</p>","f","flanker_main","html-keyboard-response","71","229663","0.0-5.0-4.0-2.8","2","31h414f13x6x","24","男性","","","","一致","f","1"
"null","","null","","html-keyboard-response","72","230171","0.0-5.0-4.0-0.9","2","31h414f13x6x","24","男性","","","","","",""
"null","<p style=""font-size: 48px"">+</p>","null","","html-keyboard-response","73","230673","0.0-5.0-4.0-1.9","2","31h414f13x6x","24","男性","","","","","",""
"509.5","<p style=""font-size: 48px"">>><>></p>","j","flanker_main","html-keyboard-response","74","231184","0.0-5.0-4.0-2.9","2","31h414f13x6x","24","男性","","","","不一致","f","0"
"null","","null","","html-keyboard-response","75","231688","0.0-5.0-4.0-0.10","2","31h414f13x6x","24","男性","","","","","",""
"null","<p style=""font-size: 48px"">+</p>","null","","html-keyboard-response","76","232204","0.0-5.0-4.0-1.10","2","31h414f13x6x","24","男性","","","","","",""
"560.2000000029802","<p style=""font-size: 48px"">>><>></p>","j","flanker_main","html-keyboard-response","77","232765","0.0-5.0-4.0-2.10","2","31h414f13x6x","24","男性","","","","不一致","f","0"
"null","","null","","html-keyboard-response","78","233275","0.0-5.0-4.0-0.11","2","31h414f13x6x","24","男性","","","","","",""
"null","<p style=""font-size: 48px"">+</p>","null","","html-keyboard-response","79","233782","0.0-5.0-4.0-1.11","2","31h414f13x6x","24","男性","","","","","",""
"580.7000000029802","<p style=""font-size: 48px""><<><<</p>","f","flanker_main","html-keyboard-response","80","234364","0.0-5.0-4.0-2.11","2","31h414f13x6x","24","男性","","","","不一致","j","0"
"null","","null","","html-keyboard-response","81","234868","0.0-5.0-4.0-0.12","2","31h414f13x6x","24","男性","","","","","",""
"null","<p style=""font-size: 48px"">+</p>","null","","html-keyboard-response","82","235375","0.0-5.0-4.0-1.12","2","31h414f13x6x","24","男性","","","","","",""
"589.1000000014901","<p style=""font-size: 48px""><<><<</p>","f","flanker_main","html-keyboard-response","83","235965","0.0-5.0-4.0-2.12","2","31h414f13x6x","24","男性","","","","不一致","j","0"
"null","","null","","html-keyboard-response","84","236471","0.0-5.0-4.0-0.13","2","31h414f13x6x","24","男性","","","","","",""
"null","<p style=""font-size: 48px"">+</p>","null","","html-keyboard-response","85","236975","0.0-5.0-4.0-1.13","2","31h414f13x6x","24","男性","","","","","",""
"509.80000000447035","<p style=""font-size: 48px"">>>>>></p>","j","flanker_main","html-keyboard-response","86","237486","0.0-5.0-4.0-2.13","2","31h414f13x6x","24","男性","","","","一致","j","1"
"null","","null","","html-keyboard-response","87","237990","0.0-5.0-4.0-0.14","2","31h414f13x6x","24","男性","","","","","",""
"null","<p style=""font-size: 48px"">+</p>","null","","html-keyboard-response","88","238491","0.0-5.0-4.0-1.14","2","31h414f13x6x","24","男性","","","","","",""
"529.3999999985099","<p style=""font-size: 48px""><<<<<</p>","f","flanker_main","html-keyboard-response","89","239022","0.0-5.0-4.0-2.14","2","31h414f13x6x","24","男性","","","","一致","f","1"
"null","","null","","html-keyboard-response","90","239537","0.0-5.0-4.0-0.15","2","31h414f13x6x","24","男性","","","","","",""
"null","<p style=""font-size: 48px"">+</p>","null","","html-keyboard-response","91","240040","0.0-5.0-4.0-1.15","2","31h414f13x6x","24","男性","","","","","",""
"501","<p style=""font-size: 48px"">-->--</p>","j","flanker_main","html-keyboard-response","92","240542","0.0-5.0-4.0-2.15","2","31h414f13x6x","24","男性","","","","中性","j","1"
"null","","null","","html-keyboard-response","93","241058","0.0-5.0-4.0-0.16","2","31h414f13x6x","24","男性","","","","","",""
"null","<p style=""font-size: 48px"">+</p>","null","","html-keyboard-response","94","241569","0.0-5.0-4.0-1.16","2","31h414f13x6x","24","男性","","","","","",""
"552.7999999970198","<p style=""font-size: 48px"">>><>></p>","j","flanker_main","html-keyboard-response","95","242123","0.0-5.0-4.0-2.16","2","31h414f13x6x","24","男性","","","","不一致","f","0"
"null","","null","","html-keyboard-response","96","242639","0.0-5.0-4.0-0.17","2","31h414f13x6x","24","男性","","","","","",""
"null","<p style=""font-size: 48px"">+</p>","null","","html-keyboard-response","97","243143","0.0-5.0-4.0-1.17","2","31h414f13x6x","24","男性","","","","","",""
"536.8000000044703","<p style=""font-size: 48px"">--<--</p>","f","flanker_main","html-keyboard-response","98","243680","0.0-5.0-4.0-2.17","2","31h414f13x6x","24","男性","","","","中性","f","1"
"null","","null","","html-keyboard-response","99","244181","0.0-5.0-4.0-0.18","2","31h414f13x6x","24","男性","","","","","",""
"null","<p style=""font-size: 48px"">+</p>","null","","html-keyboard-response","100","244685","0.0-5.0-4.0-1.18","2","31h414f13x6x","24","男性","","","","","",""
"471.79999999701977","<p style=""font-size: 48px"">-->--</p>","j","flanker_main","html-keyboard-response","101","245157","0.0-5.0-4.0-2.18","2","31h414f13x6x","24","男性","","","","中性","j","1"
"null","","null","","html-keyboard-response","102","245671","0.0-5.0-4.0-0.19","2","31h414f13x6x","24","男性","","","","","",""
"null","<p style=""font-size: 48px"">+</p>","null","","html-keyboard-response","103","246179","0.0-5.0-4.0-1.19","2","31h414f13x6x","24","男性","","","","","",""
"535.6000000014901","<p style=""font-size: 48px""><<<<<</p>","f","flanker_main","html-keyboard-response","104","246715","0.0-5.0-4.0-2.19","2","31h414f13x6x","24","男性","","","","一致","f","1"
"null","","null","","html-keyboard-response","105","247219","0.0-5.0-4.0-0.20","2","31h414f13x6x","24","男性","","","","","",""
"null","<p style=""font-size: 48px"">+</p>","null","","html-keyboard-response","106","247721","0.0-5.0-4.0-1.20","2","31h414f13x6x","24","男性","","","","","",""
"574.6999999955297","<p style=""font-size: 48px""><<><<</p>","f","flanker_main","html-keyboard-response","107","248296","0.0-5.0-4.0-2.20","2","31h414f13x6x","24","男性","","","","不一致","j","0"
"null","","null","","html-keyboard-response","108","248804","0.0-5.0-4.0-0.21","2","31h414f13x6x","24","男性","","","","","",""
"null","<p style=""font-size: 48px"">+</p>","null","","html-keyboard-response","109","249319","0.0-5.0-4.0-1.21","2","31h414f13x6x","24","男性","","","","","",""
"535.2999999970198","<p style=""font-size: 48px"">--<--</p>","f","flanker_main","html-keyboard-response","110","249856","0.0-5.0-4.0-2.21","2","31h414f13x6x","24","男性","","","","中性","f","1"
"null","","null","","html-keyboard-response","111","250366","0.0-5.0-4.0-0.22","2","31h414f13x6x","24","男性","","","","","",""
"null","<p style=""font-size: 48px"">+</p>","null","","html-keyboard-response","112","250881","0.0-5.0-4.0-1.22","2","31h414f13x6x","24","男性","","","","","",""
"472.1000000014901","<p style=""font-size: 48px"">>>>>></p>","j","flanker_main","html-keyboard-response","113","251354","0.0-5.0-4.0-2.22","2","31h414f13x6x","24","男性","","","","一致","j","1"
"null","","null","","html-keyboard-response","114","251856","0.0-5.0-4.0-0.23","2","31h414f13x6x","24","男性","","","","","",""
"null","<p style=""font-size: 48px"">+</p>","null","","html-keyboard-response","115","252358","0.0-5.0-4.0-1.23","2","31h414f13x6x","24","男性","","","","","",""
"553.3000000044703","<p style=""font-size: 48px""><<><<</p>","f","flanker_main","html-keyboard-response","116","252912","0.0-5.0-4.0-2.23","2","31h414f13x6x","24","男性","","","","不一致","j","0"
"null","","null","","html-keyboard-response","117","253428","0.0-5.0-4.0-0.24","2","31h414f13x6x","24","男性","","","","","",""
"null","<p style=""font-size: 48px"">+</p>","null","","html-keyboard-response","118","253942","0.0-5.0-4.0-1.24","2","31h414f13x6x","24","男性","","","","","",""
"509.30000000447035","<p style=""font-size: 48px"">>>>>></p>","j","flanker_main","html-keyboard-response","119","254452","0.0-5.0-4.0-2.24","2","31h414f13x6x","24","男性","","","","一致","j","1"
"null","","null","","html-keyboard-response","120","254958","0.0-5.0-4.0-0.25","2","31h414f13x6x","24","男性","","","","","",""
"null","<p style=""font-size: 48px"">+</p>","null","","html-keyboard-response","121","255466","0.0-5.0-4.0-1.25","2","31h414f13x6x","24","男性","","","","","",""
"501.6000000014901","<p style=""font-size: 48px""><<><<</p>","f","flanker_main","html-keyboard-response","122","255968","0.0-5.0-4.0-2.25","2","31h414f13x6x","24","男性","","","","不一致","j","0"
"null","","null","","html-keyboard-response","123","256480","0.0-5.0-4.0-0.26","2","31h414f13x6x","24","男性","","","","","",""
"null","<p style=""font-size: 48px"">+</p>","null","","html-keyboard-response","124","256988","0.0-5.0-4.0-1.26","2","31h414f13x6x","24","男性","","","","","",""
"456.8999999985099","<p style=""font-size: 48px"">>>>>></p>","j","flanker_main","html-keyboard-response","125","257446","0.0-5.0-4.0-2.26","2","31h414f13x6x","24","男性","","","","一致","j","1"
"null","","null","","html-keyboard-response","126","257953","0.0-5.0-4.0-0.27","2","31h414f13x6x","24","男性","","","","","",""
"null","<p style=""font-size: 48px"">+</p>","null","","html-keyboard-response","127","258468","0.0-5.0-4.0-1.27","2","31h414f13x6x","24","男性","","","","","",""
"473.3999999985099","<p style=""font-size: 48px"">>>>>></p>","j","flanker_main","html-keyboard-response","128","258942","0.0-5.0-4.0-2.27","2","31h414f13x6x","24","男性","","","","一致","j","1"
"null","","null","","html-keyboard-response","129","259452","0.0-5.0-4.0-0.28","2","31h414f13x6x","24","男性","","","","","",""
"null","<p style=""font-size: 48px"">+</p>","null","","html-keyboard-response","130","259963","0.0-5.0-4.0-1.28","2","31h414f13x6x","24","男性","","","","","",""
"555.7999999970198","<p style=""font-size: 48px""><<><<</p>","f","flanker_main","html-keyboard-response","131","260520","0.0-5.0-4.0-2.28","2","31h414f13x6x","24","男性","","","","不一致","j","0"
"null","","null","","html-keyboard-response","132","261023","0.0-5.0-4.0-0.29","2","31h414f13x6x","24","男性","","","","","",""
"null","<p style=""font-size: 48px"">+</p>","null","","html-keyboard-response","133","261525","0.0-5.0-4.0-1.29","2","31h414f13x6x","24","男性","","","","","",""
"555.5","<p style=""font-size: 48px"">>><>></p>","j","flanker_main","html-keyboard-response","134","262081","0.0-5.0-4.0-2.29","2","31h414f13x6x","24","男性","","","","不一致","f","0"
"null","","null","","html-keyboard-response","135","262593","0.0-5.0-4.0-0.30","2","31h414f13x6x","24","男性","","","","","",""
"null","<p style=""font-size: 48px"">+</p>","null","","html-keyboard-response","136","263099","0.0-5.0-4.0-1.30","2","31h414f13x6x","24","男性","","","","","",""
"584.2000000029802","<p style=""font-size: 48px"">>><>></p>","j","flanker_main","html-keyboard-response","137","263684","0.0-5.0-4.0-2.30","2","31h414f13x6x","24","男性","","","","不一致","f","0"
"null","","null","","html-keyboard-response","138","264186","0.0-5.0-4.0-0.31","2","31h414f13x6x","24","男性","","","","","",""
"null","<p style=""font-size: 48px"">+</p>","null","","html-keyboard-response","139","264689","0.0-5.0-4.0-1.31","2","31h414f13x6x","24","男性","","","","","",""
"508.79999999701977","<p style=""font-size: 48px""><<<<<</p>","f","flanker_main","html-keyboard-response","140","265198","0.0-5.0-4.0-2.31","2","31h414f13x6x","24","男性","","","","一致","f","1"
"null","","null","","html-keyboard-response","141","265707","0.0-5.0-4.0-0.32","2","31h414f13x6x","24","男性","","","","","",""
"null","<p style=""font-size: 48px"">+</p>","null","","html-keyboard-response","142","266211","0.0-5.0-4.0-1.32","2","31h414f13x6x","24","男性","","","","","",""
"548.6000000014901","<p style=""font-size: 48px"">>><>></p>","j","flanker_main","html-keyboard-response","143","266760","0.0-5.0-4.0-2.32","2","31h414f13x6x","24","男性","","","","不一致","f","0"
"null","","null","","html-keyboard-response","144","267274","0.0-5.0-4.0-0.33","2","31h414f13x6x","24","男性","","","","","",""
"null","<p style=""font-size: 48px"">+</p>","null","","html-keyboard-response","145","267783","0.0-5.0-4.0-1.33","2","31h414f13x6x","24","男性","","","","","",""
"553.2999999970198","<p style=""font-size: 48px""><<><<</p>","f","flanker_main","html-keyboard-response","146","268337","0.0-5.0-4.0-2.33","2","31h414f13x6x","24","男性","","","","不一致","j","0"
"null","","null","","html-keyboard-response","147","268843","0.0-5.0-4.0-0.34","2","31h414f13x6x","24","男性","","","","","",""
"null","<p style=""font-size: 48px"">+</p>","null","","html-keyboard-response","148","269345","0.0-5.0-4.0-1.34","2","31h414f13x6x","24","男性","","","","","",""
"554.8000000044703","<p style=""font-size: 48px"">>><>></p>","j","flanker_main","html-keyboard-response","149","269901","0.0-5.0-4.0-2.34","2","31h414f13x6x","24","男性","","","","不一致","f","0"
"null","","null","","html-keyboard-response","150","270416","0.0-5.0-4.0-0.35","2","31h414f13x6x","24","男性","","","","","",""
"null","<p style=""font-size: 48px"">+</p>","null","","html-keyboard-response","151","270919","0.0-5.0-4.0-1.35","2","31h414f13x6x","24","男性","","","","","",""
"497","<p style=""font-size: 48px""><<<<<</p>","f","flanker_main","html-keyboard-response","152","271416","0.0-5.0-4.0-2.35","2","31h414f13x6x","24","男性","","","","一致","f","1"
"null","","null","","html-keyboard-response","153","271925","0.0-5.0-4.0-0.36","2","31h414f13x6x","24","男性","","","","","",""
"null","<p style=""font-size: 48px"">+</p>","null","","html-keyboard-response","154","272440","0.0-5.0-4.0-1.36","2","31h414f13x6x","24","男性","","","","","",""
"474","<p style=""font-size: 48px"">>>>>></p>","j","flanker_main","html-keyboard-response","155","272915","0.0-5.0-4.0-2.36","2","31h414f13x6x","24","男性","","","","一致","j","1"
"null","","null","","html-keyboard-response","156","273416","0.0-5.0-4.0-0.37","2","31h414f13x6x","24","男性","","","","","",""
"null","<p style=""font-size: 48px"">+</p>","null","","html-keyboard-response","157","273918","0.0-5.0-4.0-1.37","2","31h414f13x6x","24","男性","","","","","",""
"512.6999999955297","<p style=""font-size: 48px"">-->--</p>","j","flanker_main","html-keyboard-response","158","274432","0.0-5.0-4.0-2.37","2","31h414f13x6x","24","男性","","","","中性","j","1"
"null","","null","","html-keyboard-response","159","274939","0.0-5.0-4.0-0.38","2","31h414f13x6x","24","男性","","","","","",""
"null","<p style=""font-size: 48px"">+</p>","null","","html-keyboard-response","160","275443","0.0-5.0-4.0-1.38","2","31h414f13x6x","24","男性","","","","","",""
"524.6000000014901","<p style=""font-size: 48px"">--<--</p>","f","flanker_main","html-keyboard-response","161","275968","0.0-5.0-4.0-2.38","2","31h414f13x6x","24","男性","","","","中性","f","1"
"null","","null","","html-keyboard-response","162","276481","0.0-5.0-4.0-0.39","2","31h414f13x6x","24","男性","","","","","",""
"null","<p style=""font-size: 48px"">+</p>","null","","html-keyboard-response","163","276983","0.0-5.0-4.0-1.39","2","31h414f13x6x","24","男性","","","","","",""
"522.8999999985099","<p style=""font-size: 48px"">--<--</p>","f","flanker_main","html-keyboard-response","164","277507","0.0-5.0-4.0-2.39","2","31h414f13x6x","24","男性","","","","中性","f","1"
"null","","null","","html-keyboard-response","165","278013","0.0-5.0-4.0-0.40","2","31h414f13x6x","24","男性","","","","","",""
"null","<p style=""font-size: 48px"">+</p>","null","","html-keyboard-response","166","278529","0.0-5.0-4.0-1.40","2","31h414f13x6x","24","男性","","","","","",""
"516.2999999970198","<p style=""font-size: 48px"">>><>></p>","j","flanker_main","html-keyboard-response","167","279047","0.0-5.0-4.0-2.40","2","31h414f13x6x","24","男性","","","","不一致","f","0"
"null","","null","","html-keyboard-response","168","279551","0.0-5.0-4.0-0.41","2","31h414f13x6x","24","男性","","","","","",""
"null","<p style=""font-size: 48px"">+</p>","null","","html-keyboard-response","169","280061","0.0-5.0-4.0-1.41","2","31h414f13x6x","24","男性","","","","","",""
"482.6000000014901","<p style=""font-size: 48px"">>>>>></p>","j","flanker_main","html-keyboard-response","170","280544","0.0-5.0-4.0-2.41","2","31h414f13x6x","24","男性","","","","一致","j","1"
"null","","null","","html-keyboard-response","171","281058","0.0-5.0-4.0-0.42","2","31h414f13x6x","24","男性","","","","","",""
"null","<p style=""font-size: 48px"">+</p>","null","","html-keyboard-response","172","281573","0.0-5.0-4.0-1.42","2","31h414f13x6x","24","男性","","","","","",""
"467.09999999403954","<p style=""font-size: 48px"">>>>>></p>","j","flanker_main","html-keyboard-response","173","282041","0.0-5.0-4.0-2.42","2","31h414f13x6x","24","男性","","","","一致","j","1"
"null","","null","","html-keyboard-response","174","282553","0.0-5.0-4.0-0.43","2","31h414f13x6x","24","男性","","","","","",""
"null","<p style=""font-size: 48px"">+</p>","null","","html-keyboard-response","175","283058","0.0-5.0-4.0-1.43","2","31h414f13x6x","24","男性","","","","","",""
"479.70000000298023","<p style=""font-size: 48px"">-->--</p>","j","flanker_main","html-keyboard-response","176","283538","0.0-5.0-4.0-2.43","2","31h414f13x6x","24","男性","","","","中性","j","1"
"null","","null","","html-keyboard-response","177","284054","0.0-5.0-4.0-0.44","2","31h414f13x6x","24","男性","","","","","",""
"null","<p style=""font-size: 48px"">+</p>","null","","html-keyboard-response","178","284556","0.0-5.0-4.0-1.44","2","31h414f13x6x","24","男性","","","","","",""
"393.79999999701977","<p style=""font-size: 48px"">>>>>></p>","j","flanker_main","html-keyboard-response","179","284951","0.0-5.0-4.0-2.44","2","31h414f13x6x","24","男性","","","","一致","j","1"
"null","","null","","html-keyboard-response","180","285457","0.0-5.0-4.0-0.45","2","31h414f13x6x","24","男性","","","","","",""
"null","<p style=""font-size: 48px"">+</p>","null","","html-keyboard-response","181","285959","0.0-5.0-4.0-1.45","2","31h414f13x6x","24","男性","","","","","",""
"486.5","<p style=""font-size: 48px"">>><>></p>","j","flanker_main","html-keyboard-response","182","286447","0.0-5.0-4.0-2.45","2","31h414f13x6x","24","男性","","","","不一致","f","0"
"null","","null","","html-keyboard-response","183","286952","0.0-5.0-4.0-0.46","2","31h414f13x6x","24","男性","","","","","",""
"null","<p style=""font-size: 48px"">+</p>","null","","html-keyboard-response","184","287462","0.0-5.0-4.0-1.46","2","31h414f13x6x","24","男性","","","","","",""
"480.1000000014901","<p style=""font-size: 48px"">-->--</p>","j","flanker_main","html-keyboard-response","185","287943","0.0-5.0-4.0-2.46","2","31h414f13x6x","24","男性","","","","中性","j","1"
"null","","null","","html-keyboard-response","186","288445","0.0-5.0-4.0-0.47","2","31h414f13x6x","24","男性","","","","","",""
"null","<p style=""font-size: 48px"">+</p>","null","","html-keyboard-response","187","288946","0.0-5.0-4.0-1.47","2","31h414f13x6x","24","男性","","","","","",""
"510.79999999701977","<p style=""font-size: 48px""><<<<<</p>","f","flanker_main","html-keyboard-response","188","289458","0.0-5.0-4.0-2.47","2","31h414f13x6x","24","男性","","","","一致","f","1"
"null","","null","","html-keyboard-response","189","289969","0.0-5.0-4.0-0.48","2","31h414f13x6x","24","男性","","","","","",""
"null","<p style=""font-size: 48px"">+</p>","null","","html-keyboard-response","190","290471","0.0-5.0-4.0-1.48","2","31h414f13x6x","24","男性","","","","","",""
"504.1000000014901","<p style=""font-size: 48px""><<><<</p>","f","flanker_main","html-keyboard-response","191","290976","0.0-5.0-4.0-2.48","2","31h414f13x6x","24","男性","","","","不一致","j","0"
"null","","null","","html-keyboard-response","192","291477","0.0-5.0-4.0-0.49","2","31h414f13x6x","24","男性","","","","","",""
"null","<p style=""font-size: 48px"">+</p>","null","","html-keyboard-response","193","291979","0.0-5.0-4.0-1.49","2","31h414f13x6x","24","男性","","","","","",""
"451.40000000596046","<p style=""font-size: 48px""><<<<<</p>","f","flanker_main","html-keyboard-response","194","292431","0.0-5.0-4.0-2.49","2","31h414f13x6x","24","男性","","","","一致","f","1"
"null","","null","","html-keyboard-response","195","292941","0.0-5.0-4.0-0.50","2","31h414f13x6x","24","男性","","","","","",""
"null","<p style=""font-size: 48px"">+</p>","null","","html-keyboard-response","196","293458","0.0-5.0-4.0-1.50","2","31h414f13x6x","24","男性","","","","","",""
"468.30000000447035","<p style=""font-size: 48px"">--<--</p>","f","flanker_main","html-keyboard-response","197","293927","0.0-5.0-4.0-2.50","2","31h414f13x6x","24","男性","","","","中性","f","1"
"null","","null","","html-keyboard-response","198","294436","0.0-5.0-4.0-0.51","2","31h414f13x6x","24","男性","","","","","",""
"null","<p style=""font-size: 48px"">+</p>","null","","html-keyboard-response","199","294939","0.0-5.0-4.0-1.51","2","31h414f13x6x","24","男性","","","","","",""
"529.7000000029802","<p style=""font-size: 48px"">>><>></p>","j","flanker_main","html-keyboard-response","200","295469","0.0-5.0-4.0-2.51","2","31h414f13x6x","24","男性","","","","不一致","f","0"
"null","","null","","html-keyboard-response","201","295973","0.0-5.0-4.0-0.52","2","31h414f13x6x","24","男性","","","","","",""
"null","<p style=""font-size: 48px"">+</p>","null","","html-keyboard-response","202","296477","0.0-5.0-4.0-1.52","2","31h414f13x6x","24","男性","","","","","",""
"526.9000000059605","<p style=""font-size: 48px"">--<--</p>","f","flanker_main","html-keyboard-response","203","297005","0.0-5.0-4.0-2.52","2","31h414f13x6x","24","男性","","","","中性","f","1"
"null","","null","","html-keyboard-response","204","297522","0.0-5.0-4.0-0.53","2","31h414f13x6x","24","男性","","","","","",""
"null","<p style=""font-size: 48px"">+</p>","null","","html-keyboard-response","205","298025","0.0-5.0-4.0-1.53","2","31h414f13x6x","24","男性","","","","","",""
"515.3999999985099","<p style=""font-size: 48px""><<<<<</p>","f","flanker_main","html-keyboard-response","206","298541","0.0-5.0-4.0-2.53","2","31h414f13x6x","24","男性","","","","一致","f","1"
"null","","null","","html-keyboard-response","207","299052","0.0-5.0-4.0-0.54","2","31h414f13x6x","24","男性","","","","","",""
"null","<p style=""font-size: 48px"">+</p>","null","","html-keyboard-response","208","299568","0.0-5.0-4.0-1.54","2","31h414f13x6x","24","男性","","","","","",""
"533.1000000014901","<p style=""font-size: 48px"">--<--</p>","f","flanker_main","html-keyboard-response","209","300102","0.0-5.0-4.0-2.54","2","31h414f13x6x","24","男性","","","","中性","f","1"
"null","","null","","html-keyboard-response","210","300608","0.0-5.0-4.0-0.55","2","31h414f13x6x","24","男性","","","","","",""
"null","<p style=""font-size: 48px"">+</p>","null","","html-keyboard-response","211","301115","0.0-5.0-4.0-1.55","2","31h414f13x6x","24","男性","","","","","",""
"482","<p style=""font-size: 48px"">--<--</p>","f","flanker_main","html-keyboard-response","212","301597","0.0-5.0-4.0-2.55","2","31h414f13x6x","24","男性","","","","中性","f","1"
"null","","null","","html-keyboard-response","213","302108","0.0-5.0-4.0-0.56","2","31h414f13x6x","24","男性","","","","","",""
"null","<p style=""font-size: 48px"">+</p>","null","","html-keyboard-response","214","302611","0.0-5.0-4.0-1.56","2","31h414f13x6x","24","男性","","","","","",""
"464.5","<p style=""font-size: 48px"">-->--</p>","j","flanker_main","html-keyboard-response","215","303076","0.0-5.0-4.0-2.56","2","31h414f13x6x","24","男性","","","","中性","j","1"
"null","","null","","html-keyboard-response","216","303586","0.0-5.0-4.0-0.57","2","31h414f13x6x","24","男性","","","","","",""
"null","<p style=""font-size: 48px"">+</p>","null","","html-keyboard-response","217","304099","0.0-5.0-4.0-1.57","2","31h414f13x6x","24","男性","","","","","",""
"472.5","<p style=""font-size: 48px"">-->--</p>","j","flanker_main","html-keyboard-response","218","304572","0.0-5.0-4.0-2.57","2","31h414f13x6x","24","男性","","","","中性","j","1"
"null","","null","","html-keyboard-response","219","305075","0.0-5.0-4.0-0.58","2","31h414f13x6x","24","男性","","","","","",""
"null","<p style=""font-size: 48px"">+</p>","null","","html-keyboard-response","220","305584","0.0-5.0-4.0-1.58","2","31h414f13x6x","24","男性","","","","","",""
"522.5","<p style=""font-size: 48px""><<<<<</p>","f","flanker_main","html-keyboard-response","221","306107","0.0-5.0-4.0-2.58","2","31h414f13x6x","24","男性","","","","一致","f","1"
"null","","null","","html-keyboard-response","222","306615","0.0-5.0-4.0-0.59","2","31h414f13x6x","24","男性","","","","","",""
"null","<p style=""font-size: 48px"">+</p>","null","","html-keyboard-response","223","307120","0.0-5.0-4.0-1.59","2","31h414f13x6x","24","男性","","","","","",""
"567.3999999985099","<p style=""font-size: 48px""><<><<</p>","f","flanker_main","html-keyboard-response","224","307688","0.0-5.0-4.0-2.59","2","31h414f13x6x","24","男性","","","","不一致","j","0"
"","","","","call-function","225","307689","0.0-5.0-5.0","2","31h414f13x6x","24","男性","","","","","",""
