"rt","stimulus","response","task","trial_type","trial_index","time_elapsed","internal_node_id","CB","tempID","age","sex","success","question_order","value","condition","key","correct"
"87153.80000001192","これから実験をおこないます（10分程度）。<br>実験の最初に年齢と性別の入力が求められますが，回答に関係なくランダムなデータが保存されます。<br>授業のデモということで個人の特定可能性が高いことを考慮し，このような措置をとりました。<br>フランカー課題と質問紙はご自身の遂行成績・点数が保存されます。<br>収集したデータは分析のデモに使用します。個人が特定されることはないですし，<br>リアルなデータの方が練習にもなるはずなので，これらの課題は真剣に取り組んでもらえれば幸いです。"," ","instruction","html-keyboard-response","0","87156","0.0-0.0","2","5a4h8j0g1x3w","26","男性","","","","","",""
"","","","instruction","fullscreen","1","92011","0.0-1.0","2","5a4h8j0g1x3w","26","男性","true","","","","",""
"3751.2999999523163","","{""age"":26}","par_info","survey-text","2","95766","0.0-2.0-0.0","2","5a4h8j0g1x3w","26","男性","","","","","",""
"2524.300000011921","","{""sex"":""男性""}","par_info","survey-multi-choice","3","98291","0.0-2.0-1.0","2","5a4h8j0g1x3w","26","男性","","[0]","","","",""
"7986.399999976158","次のページには，ふだんのあなたの様子について尋ねる文章が表示されます。それぞれについて，どの程度あてはまるかを<br>「あてはまらない」「どちらかと言えばあてはまらない」「どちらかと言えばあてはまる」「あてはまる」<br>の4つの選択肢から1つ選んで回答してください。<br><br>準備ができたらスペースキーを押して回答を開始してください。"," ","instruction","html-keyboard-response","4","106280","0.0-3.0","2","5a4h8j0g1x3w","26","男性","","","","","",""
"161575.40000003576","","{""Q12"":0,""Q20"":2,""Q6"":2,""Q13"":2,""Q16"":3,""Q15"":1,""Q1"":2,""Q11"":2,""Q19"":2,""Q3"":2,""Q4"":2,""Q9"":1,""Q7"":1,""Q5"":2,""Q18"":2,""Q10"":1,""Q8"":2,""Q17"":1,""Q2"":1,""Q14"":2}","bis_bas","survey-likert","5","267858","0.0-4.0","2","5a4h8j0g1x3w","26","男性","","[11,19,5,12,15,14,0,10,18,2,3,8,6,4,17,9,7,16,1,13]","","","",""
"","","","","call-function","6","267860","0.0-5.0-0.0","2","5a4h8j0g1x3w","26","男性","","","","","",""
"16062.200000047684","これから画面上に５つの矢印（>>>>>など）が表示されます。<br>中央の矢印が左向き（<）なら「f」キーを<br>中央の矢印が右向き（>）なら「j」キーを<br>なるべく早く，正確に押してください<br><br>準備ができたら「f」キーか「j」キーを押して練習を開始してください。","j","instruction","html-keyboard-response","7","283923","0.0-5.0-1.0","2","5a4h8j0g1x3w","26","男性","","","","","",""
"null","","null","","html-keyboard-response","8","284434","0.0-5.0-2.0-0.0","2","5a4h8j0g1x3w","26","男性","","","","","",""
"null","<p style=""font-size: 48px"">+</p>","null","","html-keyboard-response","9","284936","0.0-5.0-2.0-1.0","2","5a4h8j0g1x3w","26","男性","","","","","",""
"524.2999999523163","<p style=""font-size: 48px"">>>>>></p>","j","flanker_practice","html-keyboard-response","10","285461","0.0-5.0-2.0-2.0","2","5a4h8j0g1x3w","26","男性","","","","一致","j","1"
"null","","null","","html-keyboard-response","11","285963","0.0-5.0-2.0-0.1","2","5a4h8j0g1x3w","26","男性","","","","","",""
"null","<p style=""font-size: 48px"">+</p>","null","","html-keyboard-response","12","286464","0.0-5.0-2.0-1.1","2","5a4h8j0g1x3w","26","男性","","","","","",""
"571.3000000119209","<p style=""font-size: 48px"">-->--</p>","j","flanker_practice","html-keyboard-response","13","287036","0.0-5.0-2.0-2.1","2","5a4h8j0g1x3w","26","男性","","","","中性","j","1"
"null","","null","","html-keyboard-response","14","287537","0.0-5.0-2.0-0.2","2","5a4h8j0g1x3w","26","男性","","","","","",""
"null","<p style=""font-size: 48px"">+</p>","null","","html-keyboard-response","15","288038","0.0-5.0-2.0-1.2","2","5a4h8j0g1x3w","26","男性","","","","","",""
"473.10000002384186","<p style=""font-size: 48px""><<<<<</p>","f","flanker_practice","html-keyboard-response","16","288512","0.0-5.0-2.0-2.2","2","5a4h8j0g1x3w","26","男性","","","","一致","f","1"
"null","","null","","html-keyboard-response","17","289013","0.0-5.0-2.0-0.3","2","5a4h8j0g1x3w","26","男性","","","","","",""
"null","<p style=""font-size: 48px"">+</p>","null","","html-keyboard-response","18","289515","0.0-5.0-2.0-1.3","2","5a4h8j0g1x3w","26","男性","","","","","",""
"2106.5","<p style=""font-size: 48px""><<><<</p>","j","flanker_practice","html-keyboard-response","19","291623","0.0-5.0-2.0-2.3","2","5a4h8j0g1x3w","26","男性","","","","不一致","j","1"
"null","","null","","html-keyboard-response","20","292124","0.0-5.0-2.0-0.4","2","5a4h8j0g1x3w","26","男性","","","","","",""
"null","<p style=""font-size: 48px"">+</p>","null","","html-keyboard-response","21","292626","0.0-5.0-2.0-1.4","2","5a4h8j0g1x3w","26","男性","","","","","",""
"549.5","<p style=""font-size: 48px""><<<<<</p>","f","flanker_practice","html-keyboard-response","22","293176","0.0-5.0-2.0-2.4","2","5a4h8j0g1x3w","26","男性","","","","一致","f","1"
"null","","null","","html-keyboard-response","23","293678","0.0-5.0-2.0-0.5","2","5a4h8j0g1x3w","26","男性","","","","","",""
"null","<p style=""font-size: 48px"">+</p>","null","","html-keyboard-response","24","294180","0.0-5.0-2.0-1.5","2","5a4h8j0g1x3w","26","男性","","","","","",""
"502.0999999642372","<p style=""font-size: 48px"">--<--</p>","f","flanker_practice","html-keyboard-response","25","294683","0.0-5.0-2.0-2.5","2","5a4h8j0g1x3w","26","男性","","","","中性","f","1"
"null","","null","","html-keyboard-response","26","295184","0.0-5.0-2.0-0.6","2","5a4h8j0g1x3w","26","男性","","","","","",""
"null","<p style=""font-size: 48px"">+</p>","null","","html-keyboard-response","27","295686","0.0-5.0-2.0-1.6","2","5a4h8j0g1x3w","26","男性","","","","","",""
"714.5","<p style=""font-size: 48px"">>><>></p>","f","flanker_practice","html-keyboard-response","28","296401","0.0-5.0-2.0-2.6","2","5a4h8j0g1x3w","26","男性","","","","不一致","f","1"
"null","","null","","html-keyboard-response","29","296901","0.0-5.0-2.0-0.7","2","5a4h8j0g1x3w","26","男性","","","","","",""
"null","<p style=""font-size: 48px"">+</p>","null","","html-keyboard-response","30","297403","0.0-5.0-2.0-1.7","2","5a4h8j0g1x3w","26","男性","","","","","",""
"425.2000000476837","<p style=""font-size: 48px"">>><>></p>","f","flanker_practice","html-keyboard-response","31","297829","0.0-5.0-2.0-2.7","2","5a4h8j0g1x3w","26","男性","","","","不一致","f","1"
"null","","null","","html-keyboard-response","32","298330","0.0-5.0-2.0-0.8","2","5a4h8j0g1x3w","26","男性","","","","","",""
"null","<p style=""font-size: 48px"">+</p>","null","","html-keyboard-response","33","298832","0.0-5.0-2.0-1.8","2","5a4h8j0g1x3w","26","男性","","","","","",""
"403.10000002384186","<p style=""font-size: 48px"">--<--</p>","f","flanker_practice","html-keyboard-response","34","299236","0.0-5.0-2.0-2.8","2","5a4h8j0g1x3w","26","男性","","","","中性","f","1"
"null","","null","","html-keyboard-response","35","299737","0.0-5.0-2.0-0.9","2","5a4h8j0g1x3w","26","男性","","","","","",""
"null","<p style=""font-size: 48px"">+</p>","null","","html-keyboard-response","36","300238","0.0-5.0-2.0-1.9","2","5a4h8j0g1x3w","26","男性","","","","","",""
"373.60000002384186","<p style=""font-size: 48px"">-->--</p>","j","flanker_practice","html-keyboard-response","37","300612","0.0-5.0-2.0-2.9","2","5a4h8j0g1x3w","26","男性","","","","中性","j","1"
"null","","null","","html-keyboard-response","38","301113","0.0-5.0-2.0-0.10","2","5a4h8j0g1x3w","26","男性","","","","","",""
"null","<p style=""font-size: 48px"">+</p>","null","","html-keyboard-response","39","301614","0.0-5.0-2.0-1.10","2","5a4h8j0g1x3w","26","男性","","","","","",""
"423.9000000357628","<p style=""font-size: 48px""><<><<</p>","f","flanker_practice","html-keyboard-response","40","302039","0.0-5.0-2.0-2.10","2","5a4h8j0g1x3w","26","男性","","","","不一致","j","0"
"null","","null","","html-keyboard-response","41","302540","0.0-5.0-2.0-0.11","2","5a4h8j0g1x3w","26","男性","","","","","",""
"null","<p style=""font-size: 48px"">+</p>","null","","html-keyboard-response","42","303041","0.0-5.0-2.0-1.11","2","5a4h8j0g1x3w","26","男性","","","","","",""
"343.19999998807907","<p style=""font-size: 48px"">>>>>></p>","j","flanker_practice","html-keyboard-response","43","303385","0.0-5.0-2.0-2.11","2","5a4h8j0g1x3w","26","男性","","","","一致","j","1"
"2685","それでは本番を行います。<br>準備ができたら「f」キーか「j」キーを押して課題を開始してください。","j","instruction","html-keyboard-response","44","306070","0.0-5.0-3.0","2","5a4h8j0g1x3w","26","男性","","","","","",""
"null","","null","","html-keyboard-response","45","306571","0.0-5.0-4.0-0.0","2","5a4h8j0g1x3w","26","男性","","","","","",""
"null","<p style=""font-size: 48px"">+</p>","null","","html-keyboard-response","46","307073","0.0-5.0-4.0-1.0","2","5a4h8j0g1x3w","26","男性","","","","","",""
"470.10000002384186","<p style=""font-size: 48px"">>>>>></p>","j","flanker_main","html-keyboard-response","47","307544","0.0-5.0-4.0-2.0","2","5a4h8j0g1x3w","26","男性","","","","一致","j","1"
"null","","null","","html-keyboard-response","48","308051","0.0-5.0-4.0-0.1","2","5a4h8j0g1x3w","26","男性","","","","","",""
"null","<p style=""font-size: 48px"">+</p>","null","","html-keyboard-response","49","308553","0.0-5.0-4.0-1.1","2","5a4h8j0g1x3w","26","男性","","","","","",""
"445","<p style=""font-size: 48px""><<><<</p>","j","flanker_main","html-keyboard-response","50","308999","0.0-5.0-4.0-2.1","2","5a4h8j0g1x3w","26","男性","","","","不一致","j","1"
"null","","null","","html-keyboard-response","51","309499","0.0-5.0-4.0-0.2","2","5a4h8j0g1x3w","26","男性","","","","","",""
"null","<p style=""font-size: 48px"">+</p>","null","","html-keyboard-response","52","310003","0.0-5.0-4.0-1.2","2","5a4h8j0g1x3w","26","男性","","","","","",""
"420.7999999523163","<p style=""font-size: 48px""><<<<<</p>","f","flanker_main","html-keyboard-response","53","310425","0.0-5.0-4.0-2.2","2","5a4h8j0g1x3w","26","男性","","","","一致","f","1"
"null","","null","","html-keyboard-response","54","310926","0.0-5.0-4.0-0.3","2","5a4h8j0g1x3w","26","男性","","","","","",""
"null","<p style=""font-size: 48px"">+</p>","null","","html-keyboard-response","55","311430","0.0-5.0-4.0-1.3","2","5a4h8j0g1x3w","26","男性","","","","","",""
"439.39999997615814","<p style=""font-size: 48px""><<><<</p>","j","flanker_main","html-keyboard-response","56","311870","0.0-5.0-4.0-2.3","2","5a4h8j0g1x3w","26","男性","","","","不一致","j","1"
"null","","null","","html-keyboard-response","57","312370","0.0-5.0-4.0-0.4","2","5a4h8j0g1x3w","26","男性","","","","","",""
"null","<p style=""font-size: 48px"">+</p>","null","","html-keyboard-response","58","312872","0.0-5.0-4.0-1.4","2","5a4h8j0g1x3w","26","男性","","","","","",""
"354.5","<p style=""font-size: 48px"">>><>></p>","j","flanker_main","html-keyboard-response","59","313227","0.0-5.0-4.0-2.4","2","5a4h8j0g1x3w","26","男性","","","","不一致","f","0"
"null","","null","","html-keyboard-response","60","313728","0.0-5.0-4.0-0.5","2","5a4h8j0g1x3w","26","男性","","","","","",""
"null","<p style=""font-size: 48px"">+</p>","null","","html-keyboard-response","61","314230","0.0-5.0-4.0-1.5","2","5a4h8j0g1x3w","26","男性","","","","","",""
"407.2000000476837","<p style=""font-size: 48px"">--<--</p>","f","flanker_main","html-keyboard-response","62","314638","0.0-5.0-4.0-2.5","2","5a4h8j0g1x3w","26","男性","","","","中性","f","1"
"null","","null","","html-keyboard-response","63","315139","0.0-5.0-4.0-0.6","2","5a4h8j0g1x3w","26","男性","","","","","",""
"null","<p style=""font-size: 48px"">+</p>","null","","html-keyboard-response","64","315641","0.0-5.0-4.0-1.6","2","5a4h8j0g1x3w","26","男性","","","","","",""
"340.80000001192093","<p style=""font-size: 48px"">>>>>></p>","j","flanker_main","html-keyboard-response","65","315982","0.0-5.0-4.0-2.6","2","5a4h8j0g1x3w","26","男性","","","","一致","j","1"
"null","","null","","html-keyboard-response","66","316496","0.0-5.0-4.0-0.7","2","5a4h8j0g1x3w","26","男性","","","","","",""
"null","<p style=""font-size: 48px"">+</p>","null","","html-keyboard-response","67","316998","0.0-5.0-4.0-1.7","2","5a4h8j0g1x3w","26","男性","","","","","",""
"341.80000001192093","<p style=""font-size: 48px"">-->--</p>","j","flanker_main","html-keyboard-response","68","317340","0.0-5.0-4.0-2.7","2","5a4h8j0g1x3w","26","男性","","","","中性","j","1"
"null","","null","","html-keyboard-response","69","317841","0.0-5.0-4.0-0.8","2","5a4h8j0g1x3w","26","男性","","","","","",""
"null","<p style=""font-size: 48px"">+</p>","null","","html-keyboard-response","70","318344","0.0-5.0-4.0-1.8","2","5a4h8j0g1x3w","26","男性","","","","","",""
"435.89999997615814","<p style=""font-size: 48px""><<><<</p>","f","flanker_main","html-keyboard-response","71","318781","0.0-5.0-4.0-2.8","2","5a4h8j0g1x3w","26","男性","","","","不一致","j","0"
"null","","null","","html-keyboard-response","72","319282","0.0-5.0-4.0-0.9","2","5a4h8j0g1x3w","26","男性","","","","","",""
"null","<p style=""font-size: 48px"">+</p>","null","","html-keyboard-response","73","319784","0.0-5.0-4.0-1.9","2","5a4h8j0g1x3w","26","男性","","","","","",""
"488.5999999642372","<p style=""font-size: 48px"">-->--</p>","j","flanker_main","html-keyboard-response","74","320273","0.0-5.0-4.0-2.9","2","5a4h8j0g1x3w","26","男性","","","","中性","j","1"
"null","","null","","html-keyboard-response","75","320774","0.0-5.0-4.0-0.10","2","5a4h8j0g1x3w","26","男性","","","","","",""
"null","<p style=""font-size: 48px"">+</p>","null","","html-keyboard-response","76","321275","0.0-5.0-4.0-1.10","2","5a4h8j0g1x3w","26","男性","","","","","",""
"339.69999998807907","<p style=""font-size: 48px"">>>>>></p>","j","flanker_main","html-keyboard-response","77","321616","0.0-5.0-4.0-2.10","2","5a4h8j0g1x3w","26","男性","","","","一致","j","1"
"null","","null","","html-keyboard-response","78","322117","0.0-5.0-4.0-0.11","2","5a4h8j0g1x3w","26","男性","","","","","",""
"null","<p style=""font-size: 48px"">+</p>","null","","html-keyboard-response","79","322618","0.0-5.0-4.0-1.11","2","5a4h8j0g1x3w","26","男性","","","","","",""
"356.30000001192093","<p style=""font-size: 48px"">-->--</p>","j","flanker_main","html-keyboard-response","80","322975","0.0-5.0-4.0-2.11","2","5a4h8j0g1x3w","26","男性","","","","中性","j","1"
"null","","null","","html-keyboard-response","81","323476","0.0-5.0-4.0-0.12","2","5a4h8j0g1x3w","26","男性","","","","","",""
"null","<p style=""font-size: 48px"">+</p>","null","","html-keyboard-response","82","323978","0.0-5.0-4.0-1.12","2","5a4h8j0g1x3w","26","男性","","","","","",""
"520.1999999880791","<p style=""font-size: 48px""><<><<</p>","j","flanker_main","html-keyboard-response","83","324499","0.0-5.0-4.0-2.12","2","5a4h8j0g1x3w","26","男性","","","","不一致","j","1"
"null","","null","","html-keyboard-response","84","325000","0.0-5.0-4.0-0.13","2","5a4h8j0g1x3w","26","男性","","","","","",""
"null","<p style=""font-size: 48px"">+</p>","null","","html-keyboard-response","85","325502","0.0-5.0-4.0-1.13","2","5a4h8j0g1x3w","26","男性","","","","","",""
"369.2999999523163","<p style=""font-size: 48px"">>>>>></p>","j","flanker_main","html-keyboard-response","86","325872","0.0-5.0-4.0-2.13","2","5a4h8j0g1x3w","26","男性","","","","一致","j","1"
"null","","null","","html-keyboard-response","87","326374","0.0-5.0-4.0-0.14","2","5a4h8j0g1x3w","26","男性","","","","","",""
"null","<p style=""font-size: 48px"">+</p>","null","","html-keyboard-response","88","326875","0.0-5.0-4.0-1.14","2","5a4h8j0g1x3w","26","男性","","","","","",""
"343.80000001192093","<p style=""font-size: 48px"">-->--</p>","j","flanker_main","html-keyboard-response","89","327220","0.0-5.0-4.0-2.14","2","5a4h8j0g1x3w","26","男性","","","","中性","j","1"
"null","","null","","html-keyboard-response","90","327721","0.0-5.0-4.0-0.15","2","5a4h8j0g1x3w","26","男性","","","","","",""
"null","<p style=""font-size: 48px"">+</p>","null","","html-keyboard-response","91","328222","0.0-5.0-4.0-1.15","2","5a4h8j0g1x3w","26","男性","","","","","",""
"569.7999999523163","<p style=""font-size: 48px""><<><<</p>","j","flanker_main","html-keyboard-response","92","328793","0.0-5.0-4.0-2.15","2","5a4h8j0g1x3w","26","男性","","","","不一致","j","1"
"null","","null","","html-keyboard-response","93","329294","0.0-5.0-4.0-0.16","2","5a4h8j0g1x3w","26","男性","","","","","",""
"null","<p style=""font-size: 48px"">+</p>","null","","html-keyboard-response","94","329796","0.0-5.0-4.0-1.16","2","5a4h8j0g1x3w","26","男性","","","","","",""
"456","<p style=""font-size: 48px""><<<<<</p>","f","flanker_main","html-keyboard-response","95","330253","0.0-5.0-4.0-2.16","2","5a4h8j0g1x3w","26","男性","","","","一致","f","1"
"null","","null","","html-keyboard-response","96","330755","0.0-5.0-4.0-0.17","2","5a4h8j0g1x3w","26","男性","","","","","",""
"null","<p style=""font-size: 48px"">+</p>","null","","html-keyboard-response","97","331256","0.0-5.0-4.0-1.17","2","5a4h8j0g1x3w","26","男性","","","","","",""
"385.60000002384186","<p style=""font-size: 48px"">--<--</p>","f","flanker_main","html-keyboard-response","98","331642","0.0-5.0-4.0-2.17","2","5a4h8j0g1x3w","26","男性","","","","中性","f","1"
"null","","null","","html-keyboard-response","99","332143","0.0-5.0-4.0-0.18","2","5a4h8j0g1x3w","26","男性","","","","","",""
"null","<p style=""font-size: 48px"">+</p>","null","","html-keyboard-response","100","332645","0.0-5.0-4.0-1.18","2","5a4h8j0g1x3w","26","男性","","","","","",""
"372.30000001192093","<p style=""font-size: 48px""><<<<<</p>","f","flanker_main","html-keyboard-response","101","333018","0.0-5.0-4.0-2.18","2","5a4h8j0g1x3w","26","男性","","","","一致","f","1"
"null","","null","","html-keyboard-response","102","333519","0.0-5.0-4.0-0.19","2","5a4h8j0g1x3w","26","男性","","","","","",""
"null","<p style=""font-size: 48px"">+</p>","null","","html-keyboard-response","103","334021","0.0-5.0-4.0-1.19","2","5a4h8j0g1x3w","26","男性","","","","","",""
"326.69999998807907","<p style=""font-size: 48px""><<<<<</p>","f","flanker_main","html-keyboard-response","104","334349","0.0-5.0-4.0-2.19","2","5a4h8j0g1x3w","26","男性","","","","一致","f","1"
"null","","null","","html-keyboard-response","105","334850","0.0-5.0-4.0-0.20","2","5a4h8j0g1x3w","26","男性","","","","","",""
"null","<p style=""font-size: 48px"">+</p>","null","","html-keyboard-response","106","335351","0.0-5.0-4.0-1.20","2","5a4h8j0g1x3w","26","男性","","","","","",""
"386.80000001192093","<p style=""font-size: 48px"">-->--</p>","j","flanker_main","html-keyboard-response","107","335739","0.0-5.0-4.0-2.20","2","5a4h8j0g1x3w","26","男性","","","","中性","j","1"
"null","","null","","html-keyboard-response","108","336240","0.0-5.0-4.0-0.21","2","5a4h8j0g1x3w","26","男性","","","","","",""
"null","<p style=""font-size: 48px"">+</p>","null","","html-keyboard-response","109","336742","0.0-5.0-4.0-1.21","2","5a4h8j0g1x3w","26","男性","","","","","",""
"801.6000000238419","<p style=""font-size: 48px"">>><>></p>","f","flanker_main","html-keyboard-response","110","337544","0.0-5.0-4.0-2.21","2","5a4h8j0g1x3w","26","男性","","","","不一致","f","1"
"null","","null","","html-keyboard-response","111","338045","0.0-5.0-4.0-0.22","2","5a4h8j0g1x3w","26","男性","","","","","",""
"null","<p style=""font-size: 48px"">+</p>","null","","html-keyboard-response","112","338546","0.0-5.0-4.0-1.22","2","5a4h8j0g1x3w","26","男性","","","","","",""
"556.1999999880791","<p style=""font-size: 48px""><<><<</p>","j","flanker_main","html-keyboard-response","113","339103","0.0-5.0-4.0-2.22","2","5a4h8j0g1x3w","26","男性","","","","不一致","j","1"
"null","","null","","html-keyboard-response","114","339605","0.0-5.0-4.0-0.23","2","5a4h8j0g1x3w","26","男性","","","","","",""
"null","<p style=""font-size: 48px"">+</p>","null","","html-keyboard-response","115","340106","0.0-5.0-4.0-1.23","2","5a4h8j0g1x3w","26","男性","","","","","",""
"417.5","<p style=""font-size: 48px""><<<<<</p>","f","flanker_main","html-keyboard-response","116","340524","0.0-5.0-4.0-2.23","2","5a4h8j0g1x3w","26","男性","","","","一致","f","1"
"null","","null","","html-keyboard-response","117","341026","0.0-5.0-4.0-0.24","2","5a4h8j0g1x3w","26","男性","","","","","",""
"null","<p style=""font-size: 48px"">+</p>","null","","html-keyboard-response","118","341532","0.0-5.0-4.0-1.24","2","5a4h8j0g1x3w","26","男性","","","","","",""
"501.10000002384186","<p style=""font-size: 48px"">>><>></p>","f","flanker_main","html-keyboard-response","119","342034","0.0-5.0-4.0-2.24","2","5a4h8j0g1x3w","26","男性","","","","不一致","f","1"
"null","","null","","html-keyboard-response","120","342545","0.0-5.0-4.0-0.25","2","5a4h8j0g1x3w","26","男性","","","","","",""
"null","<p style=""font-size: 48px"">+</p>","null","","html-keyboard-response","121","343048","0.0-5.0-4.0-1.25","2","5a4h8j0g1x3w","26","男性","","","","","",""
"378.5","<p style=""font-size: 48px"">-->--</p>","j","flanker_main","html-keyboard-response","122","343427","0.0-5.0-4.0-2.25","2","5a4h8j0g1x3w","26","男性","","","","中性","j","1"
"null","","null","","html-keyboard-response","123","343927","0.0-5.0-4.0-0.26","2","5a4h8j0g1x3w","26","男性","","","","","",""
"null","<p style=""font-size: 48px"">+</p>","null","","html-keyboard-response","124","344430","0.0-5.0-4.0-1.26","2","5a4h8j0g1x3w","26","男性","","","","","",""
"387.7999999523163","<p style=""font-size: 48px"">>>>>></p>","j","flanker_main","html-keyboard-response","125","344818","0.0-5.0-4.0-2.26","2","5a4h8j0g1x3w","26","男性","","","","一致","j","1"
"null","","null","","html-keyboard-response","126","345319","0.0-5.0-4.0-0.27","2","5a4h8j0g1x3w","26","男性","","","","","",""
"null","<p style=""font-size: 48px"">+</p>","null","","html-keyboard-response","127","345821","0.0-5.0-4.0-1.27","2","5a4h8j0g1x3w","26","男性","","","","","",""
"368.80000001192093","<p style=""font-size: 48px""><<<<<</p>","f","flanker_main","html-keyboard-response","128","346190","0.0-5.0-4.0-2.27","2","5a4h8j0g1x3w","26","男性","","","","一致","f","1"
"null","","null","","html-keyboard-response","129","346691","0.0-5.0-4.0-0.28","2","5a4h8j0g1x3w","26","男性","","","","","",""
"null","<p style=""font-size: 48px"">+</p>","null","","html-keyboard-response","130","347194","0.0-5.0-4.0-1.28","2","5a4h8j0g1x3w","26","男性","","","","","",""
"391.5999999642372","<p style=""font-size: 48px"">--<--</p>","f","flanker_main","html-keyboard-response","131","347586","0.0-5.0-4.0-2.28","2","5a4h8j0g1x3w","26","男性","","","","中性","f","1"
"null","","null","","html-keyboard-response","132","348087","0.0-5.0-4.0-0.29","2","5a4h8j0g1x3w","26","男性","","","","","",""
"null","<p style=""font-size: 48px"">+</p>","null","","html-keyboard-response","133","348588","0.0-5.0-4.0-1.29","2","5a4h8j0g1x3w","26","男性","","","","","",""
"439.2999999523163","<p style=""font-size: 48px"">>><>></p>","f","flanker_main","html-keyboard-response","134","349029","0.0-5.0-4.0-2.29","2","5a4h8j0g1x3w","26","男性","","","","不一致","f","1"
"null","","null","","html-keyboard-response","135","349529","0.0-5.0-4.0-0.30","2","5a4h8j0g1x3w","26","男性","","","","","",""
"null","<p style=""font-size: 48px"">+</p>","null","","html-keyboard-response","136","350031","0.0-5.0-4.0-1.30","2","5a4h8j0g1x3w","26","男性","","","","","",""
"386.39999997615814","<p style=""font-size: 48px""><<<<<</p>","f","flanker_main","html-keyboard-response","137","350419","0.0-5.0-4.0-2.30","2","5a4h8j0g1x3w","26","男性","","","","一致","f","1"
"null","","null","","html-keyboard-response","138","350920","0.0-5.0-4.0-0.31","2","5a4h8j0g1x3w","26","男性","","","","","",""
"null","<p style=""font-size: 48px"">+</p>","null","","html-keyboard-response","139","351422","0.0-5.0-4.0-1.31","2","5a4h8j0g1x3w","26","男性","","","","","",""
"420.80000001192093","<p style=""font-size: 48px"">>><>></p>","f","flanker_main","html-keyboard-response","140","351844","0.0-5.0-4.0-2.31","2","5a4h8j0g1x3w","26","男性","","","","不一致","f","1"
"null","","null","","html-keyboard-response","141","352345","0.0-5.0-4.0-0.32","2","5a4h8j0g1x3w","26","男性","","","","","",""
"null","<p style=""font-size: 48px"">+</p>","null","","html-keyboard-response","142","352846","0.0-5.0-4.0-1.32","2","5a4h8j0g1x3w","26","男性","","","","","",""
"439.7999999523163","<p style=""font-size: 48px"">>><>></p>","f","flanker_main","html-keyboard-response","143","353287","0.0-5.0-4.0-2.32","2","5a4h8j0g1x3w","26","男性","","","","不一致","f","1"
"null","","null","","html-keyboard-response","144","353788","0.0-5.0-4.0-0.33","2","5a4h8j0g1x3w","26","男性","","","","","",""
"null","<p style=""font-size: 48px"">+</p>","null","","html-keyboard-response","145","354290","0.0-5.0-4.0-1.33","2","5a4h8j0g1x3w","26","男性","","","","","",""
"323.19999998807907","<p style=""font-size: 48px"">>>>>></p>","j","flanker_main","html-keyboard-response","146","354614","0.0-5.0-4.0-2.33","2","5a4h8j0g1x3w","26","男性","","","","一致","j","1"
"null","","null","","html-keyboard-response","147","355115","0.0-5.0-4.0-0.34","2","5a4h8j0g1x3w","26","男性","","","","","",""
"null","<p style=""font-size: 48px"">+</p>","null","","html-keyboard-response","148","355616","0.0-5.0-4.0-1.34","2","5a4h8j0g1x3w","26","男性","","","","","",""
"357.60000002384186","<p style=""font-size: 48px"">-->--</p>","j","flanker_main","html-keyboard-response","149","355975","0.0-5.0-4.0-2.34","2","5a4h8j0g1x3w","26","男性","","","","中性","j","1"
"null","","null","","html-keyboard-response","150","356475","0.0-5.0-4.0-0.35","2","5a4h8j0g1x3w","26","男性","","","","","",""
"null","<p style=""font-size: 48px"">+</p>","null","","html-keyboard-response","151","356977","0.0-5.0-4.0-1.35","2","5a4h8j0g1x3w","26","男性","","","","","",""
"368.69999998807907","<p style=""font-size: 48px"">>>>>></p>","j","flanker_main","html-keyboard-response","152","357346","0.0-5.0-4.0-2.35","2","5a4h8j0g1x3w","26","男性","","","","一致","j","1"
"null","","null","","html-keyboard-response","153","357847","0.0-5.0-4.0-0.36","2","5a4h8j0g1x3w","26","男性","","","","","",""
"null","<p style=""font-size: 48px"">+</p>","null","","html-keyboard-response","154","358348","0.0-5.0-4.0-1.36","2","5a4h8j0g1x3w","26","男性","","","","","",""
"391.69999998807907","<p style=""font-size: 48px""><<<<<</p>","f","flanker_main","html-keyboard-response","155","358740","0.0-5.0-4.0-2.36","2","5a4h8j0g1x3w","26","男性","","","","一致","f","1"
"null","","null","","html-keyboard-response","156","359241","0.0-5.0-4.0-0.37","2","5a4h8j0g1x3w","26","男性","","","","","",""
"null","<p style=""font-size: 48px"">+</p>","null","","html-keyboard-response","157","359743","0.0-5.0-4.0-1.37","2","5a4h8j0g1x3w","26","男性","","","","","",""
"342.69999998807907","<p style=""font-size: 48px"">-->--</p>","j","flanker_main","html-keyboard-response","158","360086","0.0-5.0-4.0-2.37","2","5a4h8j0g1x3w","26","男性","","","","中性","j","1"
"null","","null","","html-keyboard-response","159","360586","0.0-5.0-4.0-0.38","2","5a4h8j0g1x3w","26","男性","","","","","",""
"null","<p style=""font-size: 48px"">+</p>","null","","html-keyboard-response","160","361087","0.0-5.0-4.0-1.38","2","5a4h8j0g1x3w","26","男性","","","","","",""
"337.60000002384186","<p style=""font-size: 48px"">>>>>></p>","j","flanker_main","html-keyboard-response","161","361425","0.0-5.0-4.0-2.38","2","5a4h8j0g1x3w","26","男性","","","","一致","j","1"
"null","","null","","html-keyboard-response","162","361926","0.0-5.0-4.0-0.39","2","5a4h8j0g1x3w","26","男性","","","","","",""
"null","<p style=""font-size: 48px"">+</p>","null","","html-keyboard-response","163","362427","0.0-5.0-4.0-1.39","2","5a4h8j0g1x3w","26","男性","","","","","",""
"407.5","<p style=""font-size: 48px"">--<--</p>","f","flanker_main","html-keyboard-response","164","362836","0.0-5.0-4.0-2.39","2","5a4h8j0g1x3w","26","男性","","","","中性","f","1"
"null","","null","","html-keyboard-response","165","363337","0.0-5.0-4.0-0.40","2","5a4h8j0g1x3w","26","男性","","","","","",""
"null","<p style=""font-size: 48px"">+</p>","null","","html-keyboard-response","166","363838","0.0-5.0-4.0-1.40","2","5a4h8j0g1x3w","26","男性","","","","","",""
"338.69999998807907","<p style=""font-size: 48px""><<<<<</p>","f","flanker_main","html-keyboard-response","167","364178","0.0-5.0-4.0-2.40","2","5a4h8j0g1x3w","26","男性","","","","一致","f","1"
"null","","null","","html-keyboard-response","168","364679","0.0-5.0-4.0-0.41","2","5a4h8j0g1x3w","26","男性","","","","","",""
"null","<p style=""font-size: 48px"">+</p>","null","","html-keyboard-response","169","365180","0.0-5.0-4.0-1.41","2","5a4h8j0g1x3w","26","男性","","","","","",""
"338.19999998807907","<p style=""font-size: 48px"">--<--</p>","f","flanker_main","html-keyboard-response","170","365519","0.0-5.0-4.0-2.41","2","5a4h8j0g1x3w","26","男性","","","","中性","f","1"
"null","","null","","html-keyboard-response","171","366020","0.0-5.0-4.0-0.42","2","5a4h8j0g1x3w","26","男性","","","","","",""
"null","<p style=""font-size: 48px"">+</p>","null","","html-keyboard-response","172","366521","0.0-5.0-4.0-1.42","2","5a4h8j0g1x3w","26","男性","","","","","",""
"291.5","<p style=""font-size: 48px"">--<--</p>","f","flanker_main","html-keyboard-response","173","366814","0.0-5.0-4.0-2.42","2","5a4h8j0g1x3w","26","男性","","","","中性","f","1"
"null","","null","","html-keyboard-response","174","367315","0.0-5.0-4.0-0.43","2","5a4h8j0g1x3w","26","男性","","","","","",""
"null","<p style=""font-size: 48px"">+</p>","null","","html-keyboard-response","175","367817","0.0-5.0-4.0-1.43","2","5a4h8j0g1x3w","26","男性","","","","","",""
"386.60000002384186","<p style=""font-size: 48px"">>>>>></p>","j","flanker_main","html-keyboard-response","176","368204","0.0-5.0-4.0-2.43","2","5a4h8j0g1x3w","26","男性","","","","一致","j","1"
"null","","null","","html-keyboard-response","177","368705","0.0-5.0-4.0-0.44","2","5a4h8j0g1x3w","26","男性","","","","","",""
"null","<p style=""font-size: 48px"">+</p>","null","","html-keyboard-response","178","369206","0.0-5.0-4.0-1.44","2","5a4h8j0g1x3w","26","男性","","","","","",""
"442.5","<p style=""font-size: 48px""><<><<</p>","j","flanker_main","html-keyboard-response","179","369649","0.0-5.0-4.0-2.44","2","5a4h8j0g1x3w","26","男性","","","","不一致","j","1"
"null","","null","","html-keyboard-response","180","370149","0.0-5.0-4.0-0.45","2","5a4h8j0g1x3w","26","男性","","","","","",""
"null","<p style=""font-size: 48px"">+</p>","null","","html-keyboard-response","181","370651","0.0-5.0-4.0-1.45","2","5a4h8j0g1x3w","26","男性","","","","","",""
"319.89999997615814","<p style=""font-size: 48px"">>>>>></p>","j","flanker_main","html-keyboard-response","182","370972","0.0-5.0-4.0-2.45","2","5a4h8j0g1x3w","26","男性","","","","一致","j","1"
"null","","null","","html-keyboard-response","183","371472","0.0-5.0-4.0-0.46","2","5a4h8j0g1x3w","26","男性","","","","","",""
"null","<p style=""font-size: 48px"">+</p>","null","","html-keyboard-response","184","371987","0.0-5.0-4.0-1.46","2","5a4h8j0g1x3w","26","男性","","","","","",""
"344.9000000357628","<p style=""font-size: 48px"">--<--</p>","f","flanker_main","html-keyboard-response","185","372332","0.0-5.0-4.0-2.46","2","5a4h8j0g1x3w","26","男性","","","","中性","f","1"
"null","","null","","html-keyboard-response","186","372834","0.0-5.0-4.0-0.47","2","5a4h8j0g1x3w","26","男性","","","","","",""
"null","<p style=""font-size: 48px"">+</p>","null","","html-keyboard-response","187","373335","0.0-5.0-4.0-1.47","2","5a4h8j0g1x3w","26","男性","","","","","",""
"441","<p style=""font-size: 48px"">>><>></p>","f","flanker_main","html-keyboard-response","188","373777","0.0-5.0-4.0-2.47","2","5a4h8j0g1x3w","26","男性","","","","不一致","f","1"
"null","","null","","html-keyboard-response","189","374278","0.0-5.0-4.0-0.48","2","5a4h8j0g1x3w","26","男性","","","","","",""
"null","<p style=""font-size: 48px"">+</p>","null","","html-keyboard-response","190","374779","0.0-5.0-4.0-1.48","2","5a4h8j0g1x3w","26","男性","","","","","",""
"404.5","<p style=""font-size: 48px""><<><<</p>","j","flanker_main","html-keyboard-response","191","375185","0.0-5.0-4.0-2.48","2","5a4h8j0g1x3w","26","男性","","","","不一致","j","1"
"null","","null","","html-keyboard-response","192","375685","0.0-5.0-4.0-0.49","2","5a4h8j0g1x3w","26","男性","","","","","",""
"null","<p style=""font-size: 48px"">+</p>","null","","html-keyboard-response","193","376186","0.0-5.0-4.0-1.49","2","5a4h8j0g1x3w","26","男性","","","","","",""
"361.10000002384186","<p style=""font-size: 48px"">--<--</p>","f","flanker_main","html-keyboard-response","194","376548","0.0-5.0-4.0-2.49","2","5a4h8j0g1x3w","26","男性","","","","中性","f","1"
"null","","null","","html-keyboard-response","195","377048","0.0-5.0-4.0-0.50","2","5a4h8j0g1x3w","26","男性","","","","","",""
"null","<p style=""font-size: 48px"">+</p>","null","","html-keyboard-response","196","377549","0.0-5.0-4.0-1.50","2","5a4h8j0g1x3w","26","男性","","","","","",""
"427.0999999642372","<p style=""font-size: 48px""><<><<</p>","j","flanker_main","html-keyboard-response","197","377977","0.0-5.0-4.0-2.50","2","5a4h8j0g1x3w","26","男性","","","","不一致","j","1"
"null","","null","","html-keyboard-response","198","378477","0.0-5.0-4.0-0.51","2","5a4h8j0g1x3w","26","男性","","","","","",""
"null","<p style=""font-size: 48px"">+</p>","null","","html-keyboard-response","199","378978","0.0-5.0-4.0-1.51","2","5a4h8j0g1x3w","26","男性","","","","","",""
"456.30000001192093","<p style=""font-size: 48px"">>><>></p>","f","flanker_main","html-keyboard-response","200","379435","0.0-5.0-4.0-2.51","2","5a4h8j0g1x3w","26","男性","","","","不一致","f","1"
"null","","null","","html-keyboard-response","201","379937","0.0-5.0-4.0-0.52","2","5a4h8j0g1x3w","26","男性","","","","","",""
"null","<p style=""font-size: 48px"">+</p>","null","","html-keyboard-response","202","380438","0.0-5.0-4.0-1.52","2","5a4h8j0g1x3w","26","男性","","","","","",""
"432.10000002384186","<p style=""font-size: 48px""><<><<</p>","j","flanker_main","html-keyboard-response","203","380871","0.0-5.0-4.0-2.52","2","5a4h8j0g1x3w","26","男性","","","","不一致","j","1"
"null","","null","","html-keyboard-response","204","381372","0.0-5.0-4.0-0.53","2","5a4h8j0g1x3w","26","男性","","","","","",""
"null","<p style=""font-size: 48px"">+</p>","null","","html-keyboard-response","205","381873","0.0-5.0-4.0-1.53","2","5a4h8j0g1x3w","26","男性","","","","","",""
"357.5","<p style=""font-size: 48px"">--<--</p>","f","flanker_main","html-keyboard-response","206","382231","0.0-5.0-4.0-2.53","2","5a4h8j0g1x3w","26","男性","","","","中性","f","1"
"null","","null","","html-keyboard-response","207","382733","0.0-5.0-4.0-0.54","2","5a4h8j0g1x3w","26","男性","","","","","",""
"null","<p style=""font-size: 48px"">+</p>","null","","html-keyboard-response","208","383235","0.0-5.0-4.0-1.54","2","5a4h8j0g1x3w","26","男性","","","","","",""
"337.5","<p style=""font-size: 48px"">-->--</p>","j","flanker_main","html-keyboard-response","209","383573","0.0-5.0-4.0-2.54","2","5a4h8j0g1x3w","26","男性","","","","中性","j","1"
"null","","null","","html-keyboard-response","210","384073","0.0-5.0-4.0-0.55","2","5a4h8j0g1x3w","26","男性","","","","","",""
"null","<p style=""font-size: 48px"">+</p>","null","","html-keyboard-response","211","384575","0.0-5.0-4.0-1.55","2","5a4h8j0g1x3w","26","男性","","","","","",""
"338.19999998807907","<p style=""font-size: 48px""><<<<<</p>","f","flanker_main","html-keyboard-response","212","384913","0.0-5.0-4.0-2.55","2","5a4h8j0g1x3w","26","男性","","","","一致","f","1"
"null","","null","","html-keyboard-response","213","385414","0.0-5.0-4.0-0.56","2","5a4h8j0g1x3w","26","男性","","","","","",""
"null","<p style=""font-size: 48px"">+</p>","null","","html-keyboard-response","214","385915","0.0-5.0-4.0-1.56","2","5a4h8j0g1x3w","26","男性","","","","","",""
"375.39999997615814","<p style=""font-size: 48px"">>><>></p>","j","flanker_main","html-keyboard-response","215","386291","0.0-5.0-4.0-2.56","2","5a4h8j0g1x3w","26","男性","","","","不一致","f","0"
"null","","null","","html-keyboard-response","216","386792","0.0-5.0-4.0-0.57","2","5a4h8j0g1x3w","26","男性","","","","","",""
"null","<p style=""font-size: 48px"">+</p>","null","","html-keyboard-response","217","387294","0.0-5.0-4.0-1.57","2","5a4h8j0g1x3w","26","男性","","","","","",""
"385.69999998807907","<p style=""font-size: 48px"">--<--</p>","f","flanker_main","html-keyboard-response","218","387680","0.0-5.0-4.0-2.57","2","5a4h8j0g1x3w","26","男性","","","","中性","f","1"
"null","","null","","html-keyboard-response","219","388180","0.0-5.0-4.0-0.58","2","5a4h8j0g1x3w","26","男性","","","","","",""
"null","<p style=""font-size: 48px"">+</p>","null","","html-keyboard-response","220","388681","0.0-5.0-4.0-1.58","2","5a4h8j0g1x3w","26","男性","","","","","",""
"371","<p style=""font-size: 48px"">-->--</p>","j","flanker_main","html-keyboard-response","221","389053","0.0-5.0-4.0-2.58","2","5a4h8j0g1x3w","26","男性","","","","中性","j","1"
"null","","null","","html-keyboard-response","222","389554","0.0-5.0-4.0-0.59","2","5a4h8j0g1x3w","26","男性","","","","","",""
"null","<p style=""font-size: 48px"">+</p>","null","","html-keyboard-response","223","390056","0.0-5.0-4.0-1.59","2","5a4h8j0g1x3w","26","男性","","","","","",""
"422.5","<p style=""font-size: 48px"">>><>></p>","f","flanker_main","html-keyboard-response","224","390479","0.0-5.0-4.0-2.59","2","5a4h8j0g1x3w","26","男性","","","","不一致","f","1"
"","","","","call-function","225","390479","0.0-5.0-5.0","2","5a4h8j0g1x3w","26","男性","","","","","",""
