"rt","stimulus","response","task","trial_type","trial_index","time_elapsed","internal_node_id","CB","tempID","age","sex","success","question_order","value","condition","key","correct"
"5272.0999999940395","これから実験をおこないます（10分程度）。<br>実験の最初に年齢と性別の入力が求められますが，回答に関係なくランダムなデータが保存されます。<br>授業のデモということで個人の特定可能性が高いことを考慮し，このような措置をとりました。<br>フランカー課題と質問紙はご自身の遂行成績・点数が保存されます。<br>収集したデータは分析のデモに使用します。個人が特定されることはないですし，<br>リアルなデータの方が練習にもなるはずなので，これらの課題は真剣に取り組んでもらえれば幸いです。"," ","instruction","html-keyboard-response","0","5277","0.0-0.0","1","5ju3n2krwrcx","26","男性","","","","","",""
"","","","instruction","fullscreen","1","8720","0.0-1.0","1","5ju3n2krwrcx","26","男性","true","","","","",""
"7408.199999988079","","{""age"":26}","par_info","survey-text","2","16136","0.0-2.0-0.0","1","5ju3n2krwrcx","26","男性","","","","","",""
"1536","","{""sex"":""男性""}","par_info","survey-multi-choice","3","17674","0.0-2.0-1.0","1","5ju3n2krwrcx","26","男性","","[0]","","","",""
"","","","","call-function","4","17674","0.0-3.0-0.0","1","5ju3n2krwrcx","26","男性","","","","","",""
"19175.90000000596","これから画面上に５つの矢印（>>>>>など）が表示されます。<br>中央の矢印が左向き（<）なら「f」キーを<br>中央の矢印が右向き（>）なら「j」キーを<br>なるべく早く，正確に押してください<br><br>準備ができたら「f」キーか「j」キーを押して練習を開始してください。","j","instruction","html-keyboard-response","5","36851","0.0-3.0-1.0","1","5ju3n2krwrcx","26","男性","","","","","",""
"null","","null","","html-keyboard-response","6","37365","0.0-3.0-2.0-0.0","1","5ju3n2krwrcx","26","男性","","","","","",""
"null","<p style=""font-size: 48px"">+</p>","null","","html-keyboard-response","7","37874","0.0-3.0-2.0-1.0","1","5ju3n2krwrcx","26","男性","","","","","",""
"496.90000000596046","<p style=""font-size: 48px"">>>>>></p>","j","flanker_practice","html-keyboard-response","8","38374","0.0-3.0-2.0-2.0","1","5ju3n2krwrcx","26","男性","","","","一致","j","1"
"null","","null","","html-keyboard-response","9","38877","0.0-3.0-2.0-0.1","1","5ju3n2krwrcx","26","男性","","","","","",""
"null","<p style=""font-size: 48px"">+</p>","null","","html-keyboard-response","10","39382","0.0-3.0-2.0-1.1","1","5ju3n2krwrcx","26","男性","","","","","",""
"435","<p style=""font-size: 48px""><<<<<</p>","f","flanker_practice","html-keyboard-response","11","39818","0.0-3.0-2.0-2.1","1","5ju3n2krwrcx","26","男性","","","","一致","f","1"
"null","","null","","html-keyboard-response","12","40325","0.0-3.0-2.0-0.2","1","5ju3n2krwrcx","26","男性","","","","","",""
"null","<p style=""font-size: 48px"">+</p>","null","","html-keyboard-response","13","40828","0.0-3.0-2.0-1.2","1","5ju3n2krwrcx","26","男性","","","","","",""
"301.19999998807907","<p style=""font-size: 48px"">>><>></p>","j","flanker_practice","html-keyboard-response","14","41130","0.0-3.0-2.0-2.2","1","5ju3n2krwrcx","26","男性","","","","不一致","f","0"
"null","","null","","html-keyboard-response","15","41643","0.0-3.0-2.0-0.3","1","5ju3n2krwrcx","26","男性","","","","","",""
"null","<p style=""font-size: 48px"">+</p>","null","","html-keyboard-response","16","42145","0.0-3.0-2.0-1.3","1","5ju3n2krwrcx","26","男性","","","","","",""
"502.5","<p style=""font-size: 48px"">-->--</p>","j","flanker_practice","html-keyboard-response","17","42649","0.0-3.0-2.0-2.3","1","5ju3n2krwrcx","26","男性","","","","中性","j","1"
"null","","null","","html-keyboard-response","18","43159","0.0-3.0-2.0-0.4","1","5ju3n2krwrcx","26","男性","","","","","",""
"null","<p style=""font-size: 48px"">+</p>","null","","html-keyboard-response","19","43665","0.0-3.0-2.0-1.4","1","5ju3n2krwrcx","26","男性","","","","","",""
"574.2000000178814","<p style=""font-size: 48px"">>><>></p>","f","flanker_practice","html-keyboard-response","20","44240","0.0-3.0-2.0-2.4","1","5ju3n2krwrcx","26","男性","","","","不一致","f","1"
"null","","null","","html-keyboard-response","21","44746","0.0-3.0-2.0-0.5","1","5ju3n2krwrcx","26","男性","","","","","",""
"null","<p style=""font-size: 48px"">+</p>","null","","html-keyboard-response","22","45258","0.0-3.0-2.0-1.5","1","5ju3n2krwrcx","26","男性","","","","","",""
"458.09999999403954","<p style=""font-size: 48px"">--<--</p>","f","flanker_practice","html-keyboard-response","23","45716","0.0-3.0-2.0-2.5","1","5ju3n2krwrcx","26","男性","","","","中性","f","1"
"null","","null","","html-keyboard-response","24","46227","0.0-3.0-2.0-0.6","1","5ju3n2krwrcx","26","男性","","","","","",""
"null","<p style=""font-size: 48px"">+</p>","null","","html-keyboard-response","25","46735","0.0-3.0-2.0-1.6","1","5ju3n2krwrcx","26","男性","","","","","",""
"423.90000000596046","<p style=""font-size: 48px"">--<--</p>","f","flanker_practice","html-keyboard-response","26","47160","0.0-3.0-2.0-2.6","1","5ju3n2krwrcx","26","男性","","","","中性","f","1"
"null","","null","","html-keyboard-response","27","47665","0.0-3.0-2.0-0.7","1","5ju3n2krwrcx","26","男性","","","","","",""
"null","<p style=""font-size: 48px"">+</p>","null","","html-keyboard-response","28","48173","0.0-3.0-2.0-1.7","1","5ju3n2krwrcx","26","男性","","","","","",""
"382.7000000178814","<p style=""font-size: 48px"">>>>>></p>","j","flanker_practice","html-keyboard-response","29","48557","0.0-3.0-2.0-2.7","1","5ju3n2krwrcx","26","男性","","","","一致","j","1"
"null","","null","","html-keyboard-response","30","49064","0.0-3.0-2.0-0.8","1","5ju3n2krwrcx","26","男性","","","","","",""
"null","<p style=""font-size: 48px"">+</p>","null","","html-keyboard-response","31","49570","0.0-3.0-2.0-1.8","1","5ju3n2krwrcx","26","男性","","","","","",""
"320.89999997615814","<p style=""font-size: 48px""><<<<<</p>","f","flanker_practice","html-keyboard-response","32","49892","0.0-3.0-2.0-2.8","1","5ju3n2krwrcx","26","男性","","","","一致","f","1"
"null","","null","","html-keyboard-response","33","50402","0.0-3.0-2.0-0.9","1","5ju3n2krwrcx","26","男性","","","","","",""
"null","<p style=""font-size: 48px"">+</p>","null","","html-keyboard-response","34","50905","0.0-3.0-2.0-1.9","1","5ju3n2krwrcx","26","男性","","","","","",""
"385.7000000178814","<p style=""font-size: 48px"">-->--</p>","j","flanker_practice","html-keyboard-response","35","51291","0.0-3.0-2.0-2.9","1","5ju3n2krwrcx","26","男性","","","","中性","j","1"
"null","","null","","html-keyboard-response","36","51796","0.0-3.0-2.0-0.10","1","5ju3n2krwrcx","26","男性","","","","","",""
"null","<p style=""font-size: 48px"">+</p>","null","","html-keyboard-response","37","52304","0.0-3.0-2.0-1.10","1","5ju3n2krwrcx","26","男性","","","","","",""
"547.0999999940395","<p style=""font-size: 48px""><<><<</p>","j","flanker_practice","html-keyboard-response","38","52852","0.0-3.0-2.0-2.10","1","5ju3n2krwrcx","26","男性","","","","不一致","j","1"
"null","","null","","html-keyboard-response","39","53363","0.0-3.0-2.0-0.11","1","5ju3n2krwrcx","26","男性","","","","","",""
"null","<p style=""font-size: 48px"">+</p>","null","","html-keyboard-response","40","53873","0.0-3.0-2.0-1.11","1","5ju3n2krwrcx","26","男性","","","","","",""
"491.69999998807907","<p style=""font-size: 48px""><<><<</p>","j","flanker_practice","html-keyboard-response","41","54366","0.0-3.0-2.0-2.11","1","5ju3n2krwrcx","26","男性","","","","不一致","j","1"
"2887.100000023842","それでは本番を行います。<br>準備ができたら「f」キーか「j」キーを押して課題を開始してください。","j","instruction","html-keyboard-response","42","57253","0.0-3.0-3.0","1","5ju3n2krwrcx","26","男性","","","","","",""
"null","","null","","html-keyboard-response","43","57767","0.0-3.0-4.0-0.0","1","5ju3n2krwrcx","26","男性","","","","","",""
"null","<p style=""font-size: 48px"">+</p>","null","","html-keyboard-response","44","58276","0.0-3.0-4.0-1.0","1","5ju3n2krwrcx","26","男性","","","","","",""
"403.09999999403954","<p style=""font-size: 48px"">-->--</p>","j","flanker_main","html-keyboard-response","45","58681","0.0-3.0-4.0-2.0","1","5ju3n2krwrcx","26","男性","","","","中性","j","1"
"null","","null","","html-keyboard-response","46","59197","0.0-3.0-4.0-0.1","1","5ju3n2krwrcx","26","男性","","","","","",""
"null","<p style=""font-size: 48px"">+</p>","null","","html-keyboard-response","47","59708","0.0-3.0-4.0-1.1","1","5ju3n2krwrcx","26","男性","","","","","",""
"502.5","<p style=""font-size: 48px""><<><<</p>","j","flanker_main","html-keyboard-response","48","60211","0.0-3.0-4.0-2.1","1","5ju3n2krwrcx","26","男性","","","","不一致","j","1"
"null","","null","","html-keyboard-response","49","60727","0.0-3.0-4.0-0.2","1","5ju3n2krwrcx","26","男性","","","","","",""
"null","<p style=""font-size: 48px"">+</p>","null","","html-keyboard-response","50","61230","0.0-3.0-4.0-1.2","1","5ju3n2krwrcx","26","男性","","","","","",""
"404.40000000596046","<p style=""font-size: 48px"">-->--</p>","j","flanker_main","html-keyboard-response","51","61635","0.0-3.0-4.0-2.2","1","5ju3n2krwrcx","26","男性","","","","中性","j","1"
"null","","null","","html-keyboard-response","52","62140","0.0-3.0-4.0-0.3","1","5ju3n2krwrcx","26","男性","","","","","",""
"null","<p style=""font-size: 48px"">+</p>","null","","html-keyboard-response","53","62644","0.0-3.0-4.0-1.3","1","5ju3n2krwrcx","26","男性","","","","","",""
"464.89999997615814","<p style=""font-size: 48px"">--<--</p>","f","flanker_main","html-keyboard-response","54","63110","0.0-3.0-4.0-2.3","1","5ju3n2krwrcx","26","男性","","","","中性","f","1"
"null","","null","","html-keyboard-response","55","63615","0.0-3.0-4.0-0.4","1","5ju3n2krwrcx","26","男性","","","","","",""
"null","<p style=""font-size: 48px"">+</p>","null","","html-keyboard-response","56","64118","0.0-3.0-4.0-1.4","1","5ju3n2krwrcx","26","男性","","","","","",""
"415.90000000596046","<p style=""font-size: 48px""><<<<<</p>","f","flanker_main","html-keyboard-response","57","64535","0.0-3.0-4.0-2.4","1","5ju3n2krwrcx","26","男性","","","","一致","f","1"
"null","","null","","html-keyboard-response","58","65040","0.0-3.0-4.0-0.5","1","5ju3n2krwrcx","26","男性","","","","","",""
"null","<p style=""font-size: 48px"">+</p>","null","","html-keyboard-response","59","65556","0.0-3.0-4.0-1.5","1","5ju3n2krwrcx","26","男性","","","","","",""
"370.7999999821186","<p style=""font-size: 48px"">>>>>></p>","j","flanker_main","html-keyboard-response","60","65928","0.0-3.0-4.0-2.5","1","5ju3n2krwrcx","26","男性","","","","一致","j","1"
"null","","null","","html-keyboard-response","61","66435","0.0-3.0-4.0-0.6","1","5ju3n2krwrcx","26","男性","","","","","",""
"null","<p style=""font-size: 48px"">+</p>","null","","html-keyboard-response","62","66939","0.0-3.0-4.0-1.6","1","5ju3n2krwrcx","26","男性","","","","","",""
"383.59999999403954","<p style=""font-size: 48px""><<<<<</p>","f","flanker_main","html-keyboard-response","63","67323","0.0-3.0-4.0-2.6","1","5ju3n2krwrcx","26","男性","","","","一致","f","1"
"null","","null","","html-keyboard-response","64","67838","0.0-3.0-4.0-0.7","1","5ju3n2krwrcx","26","男性","","","","","",""
"null","<p style=""font-size: 48px"">+</p>","null","","html-keyboard-response","65","68339","0.0-3.0-4.0-1.7","1","5ju3n2krwrcx","26","男性","","","","","",""
"439.30000001192093","<p style=""font-size: 48px"">-->--</p>","j","flanker_main","html-keyboard-response","66","68779","0.0-3.0-4.0-2.7","1","5ju3n2krwrcx","26","男性","","","","中性","j","1"
"null","","null","","html-keyboard-response","67","69288","0.0-3.0-4.0-0.8","1","5ju3n2krwrcx","26","男性","","","","","",""
"null","<p style=""font-size: 48px"">+</p>","null","","html-keyboard-response","68","69805","0.0-3.0-4.0-1.8","1","5ju3n2krwrcx","26","男性","","","","","",""
"524.6999999880791","<p style=""font-size: 48px""><<><<</p>","j","flanker_main","html-keyboard-response","69","70331","0.0-3.0-4.0-2.8","1","5ju3n2krwrcx","26","男性","","","","不一致","j","1"
"null","","null","","html-keyboard-response","70","70841","0.0-3.0-4.0-0.9","1","5ju3n2krwrcx","26","男性","","","","","",""
"null","<p style=""font-size: 48px"">+</p>","null","","html-keyboard-response","71","71353","0.0-3.0-4.0-1.9","1","5ju3n2krwrcx","26","男性","","","","","",""
"511.09999999403954","<p style=""font-size: 48px""><<><<</p>","j","flanker_main","html-keyboard-response","72","71865","0.0-3.0-4.0-2.9","1","5ju3n2krwrcx","26","男性","","","","不一致","j","1"
"null","","null","","html-keyboard-response","73","72379","0.0-3.0-4.0-0.10","1","5ju3n2krwrcx","26","男性","","","","","",""
"null","<p style=""font-size: 48px"">+</p>","null","","html-keyboard-response","74","72887","0.0-3.0-4.0-1.10","1","5ju3n2krwrcx","26","男性","","","","","",""
"414.40000000596046","<p style=""font-size: 48px"">--<--</p>","f","flanker_main","html-keyboard-response","75","73303","0.0-3.0-4.0-2.10","1","5ju3n2krwrcx","26","男性","","","","中性","f","1"
"null","","null","","html-keyboard-response","76","73808","0.0-3.0-4.0-0.11","1","5ju3n2krwrcx","26","男性","","","","","",""
"null","<p style=""font-size: 48px"">+</p>","null","","html-keyboard-response","77","74312","0.0-3.0-4.0-1.11","1","5ju3n2krwrcx","26","男性","","","","","",""
"366.30000001192093","<p style=""font-size: 48px""><<<<<</p>","f","flanker_main","html-keyboard-response","78","74679","0.0-3.0-4.0-2.11","1","5ju3n2krwrcx","26","男性","","","","一致","f","1"
"null","","null","","html-keyboard-response","79","75180","0.0-3.0-4.0-0.12","1","5ju3n2krwrcx","26","男性","","","","","",""
"null","<p style=""font-size: 48px"">+</p>","null","","html-keyboard-response","80","75682","0.0-3.0-4.0-1.12","1","5ju3n2krwrcx","26","男性","","","","","",""
"429.2000000178814","<p style=""font-size: 48px""><<><<</p>","j","flanker_main","html-keyboard-response","81","76112","0.0-3.0-4.0-2.12","1","5ju3n2krwrcx","26","男性","","","","不一致","j","1"
"null","","null","","html-keyboard-response","82","76621","0.0-3.0-4.0-0.13","1","5ju3n2krwrcx","26","男性","","","","","",""
"null","<p style=""font-size: 48px"">+</p>","null","","html-keyboard-response","83","77135","0.0-3.0-4.0-1.13","1","5ju3n2krwrcx","26","男性","","","","","",""
"333.2999999821186","<p style=""font-size: 48px""><<<<<</p>","f","flanker_main","html-keyboard-response","84","77469","0.0-3.0-4.0-2.13","1","5ju3n2krwrcx","26","男性","","","","一致","f","1"
"null","","null","","html-keyboard-response","85","77973","0.0-3.0-4.0-0.14","1","5ju3n2krwrcx","26","男性","","","","","",""
"null","<p style=""font-size: 48px"">+</p>","null","","html-keyboard-response","86","78480","0.0-3.0-4.0-1.14","1","5ju3n2krwrcx","26","男性","","","","","",""
"331.90000000596046","<p style=""font-size: 48px"">>><>></p>","j","flanker_main","html-keyboard-response","87","78812","0.0-3.0-4.0-2.14","1","5ju3n2krwrcx","26","男性","","","","不一致","f","0"
"null","","null","","html-keyboard-response","88","79327","0.0-3.0-4.0-0.15","1","5ju3n2krwrcx","26","男性","","","","","",""
"null","<p style=""font-size: 48px"">+</p>","null","","html-keyboard-response","89","79835","0.0-3.0-4.0-1.15","1","5ju3n2krwrcx","26","男性","","","","","",""
"382.2000000178814","<p style=""font-size: 48px"">--<--</p>","f","flanker_main","html-keyboard-response","90","80218","0.0-3.0-4.0-2.15","1","5ju3n2krwrcx","26","男性","","","","中性","f","1"
"null","","null","","html-keyboard-response","91","80734","0.0-3.0-4.0-0.16","1","5ju3n2krwrcx","26","男性","","","","","",""
"null","<p style=""font-size: 48px"">+</p>","null","","html-keyboard-response","92","81251","0.0-3.0-4.0-1.16","1","5ju3n2krwrcx","26","男性","","","","","",""
"387.40000000596046","<p style=""font-size: 48px""><<<<<</p>","f","flanker_main","html-keyboard-response","93","81639","0.0-3.0-4.0-2.16","1","5ju3n2krwrcx","26","男性","","","","一致","f","1"
"null","","null","","html-keyboard-response","94","82153","0.0-3.0-4.0-0.17","1","5ju3n2krwrcx","26","男性","","","","","",""
"null","<p style=""font-size: 48px"">+</p>","null","","html-keyboard-response","95","82655","0.0-3.0-4.0-1.17","1","5ju3n2krwrcx","26","男性","","","","","",""
"441.5","<p style=""font-size: 48px""><<><<</p>","j","flanker_main","html-keyboard-response","96","83097","0.0-3.0-4.0-2.17","1","5ju3n2krwrcx","26","男性","","","","不一致","j","1"
"null","","null","","html-keyboard-response","97","83607","0.0-3.0-4.0-0.18","1","5ju3n2krwrcx","26","男性","","","","","",""
"null","<p style=""font-size: 48px"">+</p>","null","","html-keyboard-response","98","84121","0.0-3.0-4.0-1.18","1","5ju3n2krwrcx","26","男性","","","","","",""
"398.7999999821186","<p style=""font-size: 48px"">--<--</p>","f","flanker_main","html-keyboard-response","99","84521","0.0-3.0-4.0-2.18","1","5ju3n2krwrcx","26","男性","","","","中性","f","1"
"null","","null","","html-keyboard-response","100","85036","0.0-3.0-4.0-0.19","1","5ju3n2krwrcx","26","男性","","","","","",""
"null","<p style=""font-size: 48px"">+</p>","null","","html-keyboard-response","101","85539","0.0-3.0-4.0-1.19","1","5ju3n2krwrcx","26","男性","","","","","",""
"386.19999998807907","<p style=""font-size: 48px"">>><>></p>","j","flanker_main","html-keyboard-response","102","85927","0.0-3.0-4.0-2.19","1","5ju3n2krwrcx","26","男性","","","","不一致","f","0"
"null","","null","","html-keyboard-response","103","86441","0.0-3.0-4.0-0.20","1","5ju3n2krwrcx","26","男性","","","","","",""
"null","<p style=""font-size: 48px"">+</p>","null","","html-keyboard-response","104","86956","0.0-3.0-4.0-1.20","1","5ju3n2krwrcx","26","男性","","","","","",""
"365.80000001192093","<p style=""font-size: 48px"">--<--</p>","f","flanker_main","html-keyboard-response","105","87322","0.0-3.0-4.0-2.20","1","5ju3n2krwrcx","26","男性","","","","中性","f","1"
"null","","null","","html-keyboard-response","106","87825","0.0-3.0-4.0-0.21","1","5ju3n2krwrcx","26","男性","","","","","",""
"null","<p style=""font-size: 48px"">+</p>","null","","html-keyboard-response","107","88336","0.0-3.0-4.0-1.21","1","5ju3n2krwrcx","26","男性","","","","","",""
"480.80000001192093","<p style=""font-size: 48px"">>><>></p>","f","flanker_main","html-keyboard-response","108","88817","0.0-3.0-4.0-2.21","1","5ju3n2krwrcx","26","男性","","","","不一致","f","1"
"null","","null","","html-keyboard-response","109","89331","0.0-3.0-4.0-0.22","1","5ju3n2krwrcx","26","男性","","","","","",""
"null","<p style=""font-size: 48px"">+</p>","null","","html-keyboard-response","110","89843","0.0-3.0-4.0-1.22","1","5ju3n2krwrcx","26","男性","","","","","",""
"433.90000000596046","<p style=""font-size: 48px"">>>>>></p>","j","flanker_main","html-keyboard-response","111","90278","0.0-3.0-4.0-2.22","1","5ju3n2krwrcx","26","男性","","","","一致","j","1"
"null","","null","","html-keyboard-response","112","90794","0.0-3.0-4.0-0.23","1","5ju3n2krwrcx","26","男性","","","","","",""
"null","<p style=""font-size: 48px"">+</p>","null","","html-keyboard-response","113","91295","0.0-3.0-4.0-1.23","1","5ju3n2krwrcx","26","男性","","","","","",""
"519.5999999940395","<p style=""font-size: 48px"">>>>>></p>","j","flanker_main","html-keyboard-response","114","91815","0.0-3.0-4.0-2.23","1","5ju3n2krwrcx","26","男性","","","","一致","j","1"
"null","","null","","html-keyboard-response","115","92324","0.0-3.0-4.0-0.24","1","5ju3n2krwrcx","26","男性","","","","","",""
"null","<p style=""font-size: 48px"">+</p>","null","","html-keyboard-response","116","92840","0.0-3.0-4.0-1.24","1","5ju3n2krwrcx","26","男性","","","","","",""
"409.2999999821186","<p style=""font-size: 48px"">>>>>></p>","j","flanker_main","html-keyboard-response","117","93251","0.0-3.0-4.0-2.24","1","5ju3n2krwrcx","26","男性","","","","一致","j","1"
"null","","null","","html-keyboard-response","118","93764","0.0-3.0-4.0-0.25","1","5ju3n2krwrcx","26","男性","","","","","",""
"null","<p style=""font-size: 48px"">+</p>","null","","html-keyboard-response","119","94277","0.0-3.0-4.0-1.25","1","5ju3n2krwrcx","26","男性","","","","","",""
"398","<p style=""font-size: 48px""><<><<</p>","f","flanker_main","html-keyboard-response","120","94675","0.0-3.0-4.0-2.25","1","5ju3n2krwrcx","26","男性","","","","不一致","j","0"
"null","","null","","html-keyboard-response","121","95176","0.0-3.0-4.0-0.26","1","5ju3n2krwrcx","26","男性","","","","","",""
"null","<p style=""font-size: 48px"">+</p>","null","","html-keyboard-response","122","95686","0.0-3.0-4.0-1.26","1","5ju3n2krwrcx","26","男性","","","","","",""
"399.40000000596046","<p style=""font-size: 48px"">-->--</p>","j","flanker_main","html-keyboard-response","123","96087","0.0-3.0-4.0-2.26","1","5ju3n2krwrcx","26","男性","","","","中性","j","1"
"null","","null","","html-keyboard-response","124","96600","0.0-3.0-4.0-0.27","1","5ju3n2krwrcx","26","男性","","","","","",""
"null","<p style=""font-size: 48px"">+</p>","null","","html-keyboard-response","125","97108","0.0-3.0-4.0-1.27","1","5ju3n2krwrcx","26","男性","","","","","",""
"405.5","<p style=""font-size: 48px""><<<<<</p>","f","flanker_main","html-keyboard-response","126","97515","0.0-3.0-4.0-2.27","1","5ju3n2krwrcx","26","男性","","","","一致","f","1"
"null","","null","","html-keyboard-response","127","98019","0.0-3.0-4.0-0.28","1","5ju3n2krwrcx","26","男性","","","","","",""
"null","<p style=""font-size: 48px"">+</p>","null","","html-keyboard-response","128","98524","0.0-3.0-4.0-1.28","1","5ju3n2krwrcx","26","男性","","","","","",""
"396.40000000596046","<p style=""font-size: 48px""><<<<<</p>","f","flanker_main","html-keyboard-response","129","98921","0.0-3.0-4.0-2.28","1","5ju3n2krwrcx","26","男性","","","","一致","f","1"
"null","","null","","html-keyboard-response","130","99435","0.0-3.0-4.0-0.29","1","5ju3n2krwrcx","26","男性","","","","","",""
"null","<p style=""font-size: 48px"">+</p>","null","","html-keyboard-response","131","99939","0.0-3.0-4.0-1.29","1","5ju3n2krwrcx","26","男性","","","","","",""
"394.59999999403954","<p style=""font-size: 48px""><<<<<</p>","f","flanker_main","html-keyboard-response","132","100334","0.0-3.0-4.0-2.29","1","5ju3n2krwrcx","26","男性","","","","一致","f","1"
"null","","null","","html-keyboard-response","133","100844","0.0-3.0-4.0-0.30","1","5ju3n2krwrcx","26","男性","","","","","",""
"null","<p style=""font-size: 48px"">+</p>","null","","html-keyboard-response","134","101375","0.0-3.0-4.0-1.30","1","5ju3n2krwrcx","26","男性","","","","","",""
"413.09999999403954","<p style=""font-size: 48px"">-->--</p>","j","flanker_main","html-keyboard-response","135","101789","0.0-3.0-4.0-2.30","1","5ju3n2krwrcx","26","男性","","","","中性","j","1"
"null","","null","","html-keyboard-response","136","102298","0.0-3.0-4.0-0.31","1","5ju3n2krwrcx","26","男性","","","","","",""
"null","<p style=""font-size: 48px"">+</p>","null","","html-keyboard-response","137","102801","0.0-3.0-4.0-1.31","1","5ju3n2krwrcx","26","男性","","","","","",""
"412.39999997615814","<p style=""font-size: 48px"">-->--</p>","j","flanker_main","html-keyboard-response","138","103214","0.0-3.0-4.0-2.31","1","5ju3n2krwrcx","26","男性","","","","中性","j","1"
"null","","null","","html-keyboard-response","139","103723","0.0-3.0-4.0-0.32","1","5ju3n2krwrcx","26","男性","","","","","",""
"null","<p style=""font-size: 48px"">+</p>","null","","html-keyboard-response","140","104230","0.0-3.0-4.0-1.32","1","5ju3n2krwrcx","26","男性","","","","","",""
"354.30000001192093","<p style=""font-size: 48px"">>>>>></p>","j","flanker_main","html-keyboard-response","141","104585","0.0-3.0-4.0-2.32","1","5ju3n2krwrcx","26","男性","","","","一致","j","1"
"null","","null","","html-keyboard-response","142","105098","0.0-3.0-4.0-0.33","1","5ju3n2krwrcx","26","男性","","","","","",""
"null","<p style=""font-size: 48px"">+</p>","null","","html-keyboard-response","143","105609","0.0-3.0-4.0-1.33","1","5ju3n2krwrcx","26","男性","","","","","",""
"483","<p style=""font-size: 48px"">>><>></p>","f","flanker_main","html-keyboard-response","144","106093","0.0-3.0-4.0-2.33","1","5ju3n2krwrcx","26","男性","","","","不一致","f","1"
"null","","null","","html-keyboard-response","145","106596","0.0-3.0-4.0-0.34","1","5ju3n2krwrcx","26","男性","","","","","",""
"null","<p style=""font-size: 48px"">+</p>","null","","html-keyboard-response","146","107100","0.0-3.0-4.0-1.34","1","5ju3n2krwrcx","26","男性","","","","","",""
"417.2000000178814","<p style=""font-size: 48px"">>><>></p>","f","flanker_main","html-keyboard-response","147","107518","0.0-3.0-4.0-2.34","1","5ju3n2krwrcx","26","男性","","","","不一致","f","1"
"null","","null","","html-keyboard-response","148","108030","0.0-3.0-4.0-0.35","1","5ju3n2krwrcx","26","男性","","","","","",""
"null","<p style=""font-size: 48px"">+</p>","null","","html-keyboard-response","149","108544","0.0-3.0-4.0-1.35","1","5ju3n2krwrcx","26","男性","","","","","",""
"387.40000000596046","<p style=""font-size: 48px"">--<--</p>","f","flanker_main","html-keyboard-response","150","108933","0.0-3.0-4.0-2.35","1","5ju3n2krwrcx","26","男性","","","","中性","f","1"
"null","","null","","html-keyboard-response","151","109442","0.0-3.0-4.0-0.36","1","5ju3n2krwrcx","26","男性","","","","","",""
"null","<p style=""font-size: 48px"">+</p>","null","","html-keyboard-response","152","109947","0.0-3.0-4.0-1.36","1","5ju3n2krwrcx","26","男性","","","","","",""
"439","<p style=""font-size: 48px"">-->--</p>","j","flanker_main","html-keyboard-response","153","110387","0.0-3.0-4.0-2.36","1","5ju3n2krwrcx","26","男性","","","","中性","j","1"
"null","","null","","html-keyboard-response","154","110897","0.0-3.0-4.0-0.37","1","5ju3n2krwrcx","26","男性","","","","","",""
"null","<p style=""font-size: 48px"">+</p>","null","","html-keyboard-response","155","111406","0.0-3.0-4.0-1.37","1","5ju3n2krwrcx","26","男性","","","","","",""
"375.2000000178814","<p style=""font-size: 48px"">>>>>></p>","j","flanker_main","html-keyboard-response","156","111782","0.0-3.0-4.0-2.37","1","5ju3n2krwrcx","26","男性","","","","一致","j","1"
"null","","null","","html-keyboard-response","157","112286","0.0-3.0-4.0-0.38","1","5ju3n2krwrcx","26","男性","","","","","",""
"null","<p style=""font-size: 48px"">+</p>","null","","html-keyboard-response","158","112803","0.0-3.0-4.0-1.38","1","5ju3n2krwrcx","26","男性","","","","","",""
"389.59999999403954","<p style=""font-size: 48px"">-->--</p>","j","flanker_main","html-keyboard-response","159","113193","0.0-3.0-4.0-2.38","1","5ju3n2krwrcx","26","男性","","","","中性","j","1"
"null","","null","","html-keyboard-response","160","113699","0.0-3.0-4.0-0.39","1","5ju3n2krwrcx","26","男性","","","","","",""
"null","<p style=""font-size: 48px"">+</p>","null","","html-keyboard-response","161","114206","0.0-3.0-4.0-1.39","1","5ju3n2krwrcx","26","男性","","","","","",""
"444","<p style=""font-size: 48px"">>><>></p>","f","flanker_main","html-keyboard-response","162","114652","0.0-3.0-4.0-2.39","1","5ju3n2krwrcx","26","男性","","","","不一致","f","1"
"null","","null","","html-keyboard-response","163","115153","0.0-3.0-4.0-0.40","1","5ju3n2krwrcx","26","男性","","","","","",""
"null","<p style=""font-size: 48px"">+</p>","null","","html-keyboard-response","164","115656","0.0-3.0-4.0-1.40","1","5ju3n2krwrcx","26","男性","","","","","",""
"408.59999999403954","<p style=""font-size: 48px"">--<--</p>","f","flanker_main","html-keyboard-response","165","116066","0.0-3.0-4.0-2.40","1","5ju3n2krwrcx","26","男性","","","","中性","f","1"
"null","","null","","html-keyboard-response","166","116572","0.0-3.0-4.0-0.41","1","5ju3n2krwrcx","26","男性","","","","","",""
"null","<p style=""font-size: 48px"">+</p>","null","","html-keyboard-response","167","117080","0.0-3.0-4.0-1.41","1","5ju3n2krwrcx","26","男性","","","","","",""
"490.30000001192093","<p style=""font-size: 48px"">>><>></p>","f","flanker_main","html-keyboard-response","168","117571","0.0-3.0-4.0-2.41","1","5ju3n2krwrcx","26","男性","","","","不一致","f","1"
"null","","null","","html-keyboard-response","169","118072","0.0-3.0-4.0-0.42","1","5ju3n2krwrcx","26","男性","","","","","",""
"null","<p style=""font-size: 48px"">+</p>","null","","html-keyboard-response","170","118581","0.0-3.0-4.0-1.42","1","5ju3n2krwrcx","26","男性","","","","","",""
"564.1999999880791","<p style=""font-size: 48px""><<><<</p>","j","flanker_main","html-keyboard-response","171","119146","0.0-3.0-4.0-2.42","1","5ju3n2krwrcx","26","男性","","","","不一致","j","1"
"null","","null","","html-keyboard-response","172","119652","0.0-3.0-4.0-0.43","1","5ju3n2krwrcx","26","男性","","","","","",""
"null","<p style=""font-size: 48px"">+</p>","null","","html-keyboard-response","173","120166","0.0-3.0-4.0-1.43","1","5ju3n2krwrcx","26","男性","","","","","",""
"393.30000001192093","<p style=""font-size: 48px"">>>>>></p>","j","flanker_main","html-keyboard-response","174","120560","0.0-3.0-4.0-2.43","1","5ju3n2krwrcx","26","男性","","","","一致","j","1"
"null","","null","","html-keyboard-response","175","121073","0.0-3.0-4.0-0.44","1","5ju3n2krwrcx","26","男性","","","","","",""
"null","<p style=""font-size: 48px"">+</p>","null","","html-keyboard-response","176","121583","0.0-3.0-4.0-1.44","1","5ju3n2krwrcx","26","男性","","","","","",""
"479.90000000596046","<p style=""font-size: 48px""><<><<</p>","j","flanker_main","html-keyboard-response","177","122064","0.0-3.0-4.0-2.44","1","5ju3n2krwrcx","26","男性","","","","不一致","j","1"
"null","","null","","html-keyboard-response","178","122567","0.0-3.0-4.0-0.45","1","5ju3n2krwrcx","26","男性","","","","","",""
"null","<p style=""font-size: 48px"">+</p>","null","","html-keyboard-response","179","123068","0.0-3.0-4.0-1.45","1","5ju3n2krwrcx","26","男性","","","","","",""
"380.09999999403954","<p style=""font-size: 48px"">>>>>></p>","j","flanker_main","html-keyboard-response","180","123449","0.0-3.0-4.0-2.45","1","5ju3n2krwrcx","26","男性","","","","一致","j","1"
"null","","null","","html-keyboard-response","181","123964","0.0-3.0-4.0-0.46","1","5ju3n2krwrcx","26","男性","","","","","",""
"null","<p style=""font-size: 48px"">+</p>","null","","html-keyboard-response","182","124469","0.0-3.0-4.0-1.46","1","5ju3n2krwrcx","26","男性","","","","","",""
"419.80000001192093","<p style=""font-size: 48px"">-->--</p>","j","flanker_main","html-keyboard-response","183","124890","0.0-3.0-4.0-2.46","1","5ju3n2krwrcx","26","男性","","","","中性","j","1"
"null","","null","","html-keyboard-response","184","125400","0.0-3.0-4.0-0.47","1","5ju3n2krwrcx","26","男性","","","","","",""
"null","<p style=""font-size: 48px"">+</p>","null","","html-keyboard-response","185","125902","0.0-3.0-4.0-1.47","1","5ju3n2krwrcx","26","男性","","","","","",""
"455.30000001192093","<p style=""font-size: 48px""><<><<</p>","j","flanker_main","html-keyboard-response","186","126359","0.0-3.0-4.0-2.47","1","5ju3n2krwrcx","26","男性","","","","不一致","j","1"
"null","","null","","html-keyboard-response","187","126862","0.0-3.0-4.0-0.48","1","5ju3n2krwrcx","26","男性","","","","","",""
"null","<p style=""font-size: 48px"">+</p>","null","","html-keyboard-response","188","127374","0.0-3.0-4.0-1.48","1","5ju3n2krwrcx","26","男性","","","","","",""
"460.09999999403954","<p style=""font-size: 48px"">--<--</p>","f","flanker_main","html-keyboard-response","189","127835","0.0-3.0-4.0-2.48","1","5ju3n2krwrcx","26","男性","","","","中性","f","1"
"null","","null","","html-keyboard-response","190","128347","0.0-3.0-4.0-0.49","1","5ju3n2krwrcx","26","男性","","","","","",""
"null","<p style=""font-size: 48px"">+</p>","null","","html-keyboard-response","191","128858","0.0-3.0-4.0-1.49","1","5ju3n2krwrcx","26","男性","","","","","",""
"471.59999999403954","<p style=""font-size: 48px"">>><>></p>","f","flanker_main","html-keyboard-response","192","129330","0.0-3.0-4.0-2.49","1","5ju3n2krwrcx","26","男性","","","","不一致","f","1"
"null","","null","","html-keyboard-response","193","129834","0.0-3.0-4.0-0.50","1","5ju3n2krwrcx","26","男性","","","","","",""
"null","<p style=""font-size: 48px"">+</p>","null","","html-keyboard-response","194","130343","0.0-3.0-4.0-1.50","1","5ju3n2krwrcx","26","男性","","","","","",""
"407.59999999403954","<p style=""font-size: 48px""><<<<<</p>","f","flanker_main","html-keyboard-response","195","130752","0.0-3.0-4.0-2.50","1","5ju3n2krwrcx","26","男性","","","","一致","f","1"
"null","","null","","html-keyboard-response","196","131262","0.0-3.0-4.0-0.51","1","5ju3n2krwrcx","26","男性","","","","","",""
"null","<p style=""font-size: 48px"">+</p>","null","","html-keyboard-response","197","131770","0.0-3.0-4.0-1.51","1","5ju3n2krwrcx","26","男性","","","","","",""
"469","<p style=""font-size: 48px"">>><>></p>","f","flanker_main","html-keyboard-response","198","132239","0.0-3.0-4.0-2.51","1","5ju3n2krwrcx","26","男性","","","","不一致","f","1"
"null","","null","","html-keyboard-response","199","132752","0.0-3.0-4.0-0.52","1","5ju3n2krwrcx","26","男性","","","","","",""
"null","<p style=""font-size: 48px"">+</p>","null","","html-keyboard-response","200","133264","0.0-3.0-4.0-1.52","1","5ju3n2krwrcx","26","男性","","","","","",""
"395.30000001192093","<p style=""font-size: 48px"">--<--</p>","f","flanker_main","html-keyboard-response","201","133661","0.0-3.0-4.0-2.52","1","5ju3n2krwrcx","26","男性","","","","中性","f","1"
"null","","null","","html-keyboard-response","202","134166","0.0-3.0-4.0-0.53","1","5ju3n2krwrcx","26","男性","","","","","",""
"null","<p style=""font-size: 48px"">+</p>","null","","html-keyboard-response","203","134669","0.0-3.0-4.0-1.53","1","5ju3n2krwrcx","26","男性","","","","","",""
"469.09999999403954","<p style=""font-size: 48px"">>><>></p>","f","flanker_main","html-keyboard-response","204","135138","0.0-3.0-4.0-2.53","1","5ju3n2krwrcx","26","男性","","","","不一致","f","1"
"null","","null","","html-keyboard-response","205","135639","0.0-3.0-4.0-0.54","1","5ju3n2krwrcx","26","男性","","","","","",""
"null","<p style=""font-size: 48px"">+</p>","null","","html-keyboard-response","206","136155","0.0-3.0-4.0-1.54","1","5ju3n2krwrcx","26","男性","","","","","",""
"388.2000000178814","<p style=""font-size: 48px"">--<--</p>","f","flanker_main","html-keyboard-response","207","136544","0.0-3.0-4.0-2.54","1","5ju3n2krwrcx","26","男性","","","","中性","f","1"
"null","","null","","html-keyboard-response","208","137060","0.0-3.0-4.0-0.55","1","5ju3n2krwrcx","26","男性","","","","","",""
"null","<p style=""font-size: 48px"">+</p>","null","","html-keyboard-response","209","137574","0.0-3.0-4.0-1.55","1","5ju3n2krwrcx","26","男性","","","","","",""
"443.40000000596046","<p style=""font-size: 48px""><<><<</p>","j","flanker_main","html-keyboard-response","210","138018","0.0-3.0-4.0-2.55","1","5ju3n2krwrcx","26","男性","","","","不一致","j","1"
"null","","null","","html-keyboard-response","211","138523","0.0-3.0-4.0-0.56","1","5ju3n2krwrcx","26","男性","","","","","",""
"null","<p style=""font-size: 48px"">+</p>","null","","html-keyboard-response","212","139026","0.0-3.0-4.0-1.56","1","5ju3n2krwrcx","26","男性","","","","","",""
"403.90000000596046","<p style=""font-size: 48px"">>>>>></p>","j","flanker_main","html-keyboard-response","213","139431","0.0-3.0-4.0-2.56","1","5ju3n2krwrcx","26","男性","","","","一致","j","1"
"null","","null","","html-keyboard-response","214","139932","0.0-3.0-4.0-0.57","1","5ju3n2krwrcx","26","男性","","","","","",""
"null","<p style=""font-size: 48px"">+</p>","null","","html-keyboard-response","215","140445","0.0-3.0-4.0-1.57","1","5ju3n2krwrcx","26","男性","","","","","",""
"389.5","<p style=""font-size: 48px"">>>>>></p>","j","flanker_main","html-keyboard-response","216","140835","0.0-3.0-4.0-2.57","1","5ju3n2krwrcx","26","男性","","","","一致","j","1"
"null","","null","","html-keyboard-response","217","141342","0.0-3.0-4.0-0.58","1","5ju3n2krwrcx","26","男性","","","","","",""
"null","<p style=""font-size: 48px"">+</p>","null","","html-keyboard-response","218","141848","0.0-3.0-4.0-1.58","1","5ju3n2krwrcx","26","男性","","","","","",""
"394.40000000596046","<p style=""font-size: 48px""><<<<<</p>","f","flanker_main","html-keyboard-response","219","142243","0.0-3.0-4.0-2.58","1","5ju3n2krwrcx","26","男性","","","","一致","f","1"
"null","","null","","html-keyboard-response","220","142744","0.0-3.0-4.0-0.59","1","5ju3n2krwrcx","26","男性","","","","","",""
"null","<p style=""font-size: 48px"">+</p>","null","","html-keyboard-response","221","143260","0.0-3.0-4.0-1.59","1","5ju3n2krwrcx","26","男性","","","","","",""
"427.2999999821186","<p style=""font-size: 48px"">-->--</p>","j","flanker_main","html-keyboard-response","222","143688","0.0-3.0-4.0-2.59","1","5ju3n2krwrcx","26","男性","","","","中性","j","1"
"","","","","call-function","223","143689","0.0-3.0-5.0","1","5ju3n2krwrcx","26","男性","","","","","",""
"6206.700000017881","次のページには，ふだんのあなたの様子について尋ねる文章が表示されます。それぞれについて，どの程度あてはまるかを<br>「あてはまらない」「どちらかと言えばあてはまらない」「どちらかと言えばあてはまる」「あてはまる」<br>の4つの選択肢から1つ選んで回答してください。<br><br>準備ができたらスペースキーを押して回答を開始してください。"," ","instruction","html-keyboard-response","224","149897","0.0-4.0","1","5ju3n2krwrcx","26","男性","","","","","",""
"63984.59999999404","","{""Q20"":2,""Q11"":3,""Q8"":3,""Q19"":3,""Q10"":2,""Q2"":2,""Q3"":2,""Q13"":1,""Q6"":2,""Q12"":3,""Q17"":2,""Q16"":3,""Q1"":2,""Q5"":3,""Q14"":2,""Q15"":1,""Q4"":2,""Q7"":2,""Q18"":1,""Q9"":2}","bis_bas","survey-likert","225","213894","0.0-5.0","1","5ju3n2krwrcx","26","男性","","[19,10,7,18,9,1,2,12,5,11,16,15,0,4,13,14,3,6,17,8]","","","",""
