"rt","stimulus","response","task","trial_type","trial_index","time_elapsed","internal_node_id","CB","tempID","age","sex","success","question_order","value","condition","key","correct"
"12158","これから実験をおこないます（10分程度）。<br>実験の最初に年齢と性別の入力が求められますが，回答に関係なくランダムなデータが保存されます。<br>授業のデモということで個人の特定可能性が高いことを考慮し，このような措置をとりました。<br>フランカー課題と質問紙はご自身の遂行成績・点数が保存されます。<br>収集したデータは分析のデモに使用します。個人が特定されることはないですし，<br>リアルなデータの方が練習にもなるはずなので，これらの課題は真剣に取り組んでもらえれば幸いです。"," ","instruction","html-keyboard-response","0","12165","0.0-0.0","2","6mum9z0d4xyv","18","女性","","","","","",""
"","","","instruction","fullscreen","1","16723","0.0-1.0","2","6mum9z0d4xyv","18","女性","true","","","","",""
"5920","","{""age"":18}","par_info","survey-text","2","22645","0.0-2.0-0.0","2","6mum9z0d4xyv","18","女性","","","","","",""
"2472","","{""sex"":""女性""}","par_info","survey-multi-choice","3","25119","0.0-2.0-1.0","2","6mum9z0d4xyv","18","女性","","[0]","","","",""
"13856","次のページには，ふだんのあなたの様子について尋ねる文章が表示されます。それぞれについて，どの程度あてはまるかを<br>「あてはまらない」「どちらかと言えばあてはまらない」「どちらかと言えばあてはまる」「あてはまる」<br>の4つの選択肢から1つ選んで回答してください。<br><br>準備ができたらスペースキーを押して回答を開始してください。"," ","instruction","html-keyboard-response","4","38978","0.0-3.0","2","6mum9z0d4xyv","18","女性","","","","","",""
"132671","","{""Q7"":2,""Q6"":2,""Q16"":2,""Q17"":2,""Q18"":2,""Q8"":2,""Q14"":2,""Q12"":2,""Q5"":2,""Q1"":1,""Q10"":2,""Q19"":1,""Q20"":2,""Q9"":1,""Q13"":2,""Q3"":3,""Q4"":2,""Q15"":3,""Q2"":2,""Q11"":2}","bis_bas","survey-likert","5","171658","0.0-4.0","2","6mum9z0d4xyv","18","女性","","[6,5,15,16,17,7,13,11,4,0,9,18,19,8,12,2,3,14,1,10]","","","",""
"","","","","call-function","6","171659","0.0-5.0-0.0","2","6mum9z0d4xyv","18","女性","","","","","",""
"16519","これから画面上に５つの矢印（>>>>>など）が表示されます。<br>中央の矢印が左向き（<）なら「f」キーを<br>中央の矢印が右向き（>）なら「j」キーを<br>なるべく早く，正確に押してください<br><br>準備ができたら「f」キーか「j」キーを押して練習を開始してください。","f","instruction","html-keyboard-response","7","188180","0.0-5.0-1.0","2","6mum9z0d4xyv","18","女性","","","","","",""
"null","","null","","html-keyboard-response","8","188699","0.0-5.0-2.0-0.0","2","6mum9z0d4xyv","18","女性","","","","","",""
"null","<p style=""font-size: 48px"">+</p>","null","","html-keyboard-response","9","189218","0.0-5.0-2.0-1.0","2","6mum9z0d4xyv","18","女性","","","","","",""
"668","<p style=""font-size: 48px""><<<<<</p>","f","flanker_practice","html-keyboard-response","10","189889","0.0-5.0-2.0-2.0","2","6mum9z0d4xyv","18","女性","","","","一致","f","1"
"null","","null","","html-keyboard-response","11","190409","0.0-5.0-2.0-0.1","2","6mum9z0d4xyv","18","女性","","","","","",""
"null","<p style=""font-size: 48px"">+</p>","null","","html-keyboard-response","12","190929","0.0-5.0-2.0-1.1","2","6mum9z0d4xyv","18","女性","","","","","",""
"605","<p style=""font-size: 48px""><<><<</p>","j","flanker_practice","html-keyboard-response","13","191535","0.0-5.0-2.0-2.1","2","6mum9z0d4xyv","18","女性","","","","不一致","j","1"
"null","","null","","html-keyboard-response","14","192049","0.0-5.0-2.0-0.2","2","6mum9z0d4xyv","18","女性","","","","","",""
"null","<p style=""font-size: 48px"">+</p>","null","","html-keyboard-response","15","192569","0.0-5.0-2.0-1.2","2","6mum9z0d4xyv","18","女性","","","","","",""
"389","<p style=""font-size: 48px"">-->--</p>","j","flanker_practice","html-keyboard-response","16","192960","0.0-5.0-2.0-2.2","2","6mum9z0d4xyv","18","女性","","","","中性","j","1"
"null","","null","","html-keyboard-response","17","193468","0.0-5.0-2.0-0.3","2","6mum9z0d4xyv","18","女性","","","","","",""
"null","<p style=""font-size: 48px"">+</p>","null","","html-keyboard-response","18","193989","0.0-5.0-2.0-1.3","2","6mum9z0d4xyv","18","女性","","","","","",""
"439","<p style=""font-size: 48px"">--<--</p>","f","flanker_practice","html-keyboard-response","19","194429","0.0-5.0-2.0-2.3","2","6mum9z0d4xyv","18","女性","","","","中性","f","1"
"null","","null","","html-keyboard-response","20","194944","0.0-5.0-2.0-0.4","2","6mum9z0d4xyv","18","女性","","","","","",""
"null","<p style=""font-size: 48px"">+</p>","null","","html-keyboard-response","21","195469","0.0-5.0-2.0-1.4","2","6mum9z0d4xyv","18","女性","","","","","",""
"466","<p style=""font-size: 48px"">>>>>></p>","j","flanker_practice","html-keyboard-response","22","195936","0.0-5.0-2.0-2.4","2","6mum9z0d4xyv","18","女性","","","","一致","j","1"
"null","","null","","html-keyboard-response","23","196449","0.0-5.0-2.0-0.5","2","6mum9z0d4xyv","18","女性","","","","","",""
"null","<p style=""font-size: 48px"">+</p>","null","","html-keyboard-response","24","196968","0.0-5.0-2.0-1.5","2","6mum9z0d4xyv","18","女性","","","","","",""
"470","<p style=""font-size: 48px"">>><>></p>","f","flanker_practice","html-keyboard-response","25","197439","0.0-5.0-2.0-2.5","2","6mum9z0d4xyv","18","女性","","","","不一致","f","1"
"null","","null","","html-keyboard-response","26","197948","0.0-5.0-2.0-0.6","2","6mum9z0d4xyv","18","女性","","","","","",""
"null","<p style=""font-size: 48px"">+</p>","null","","html-keyboard-response","27","198469","0.0-5.0-2.0-1.6","2","6mum9z0d4xyv","18","女性","","","","","",""
"379","<p style=""font-size: 48px"">>>>>></p>","j","flanker_practice","html-keyboard-response","28","198849","0.0-5.0-2.0-2.6","2","6mum9z0d4xyv","18","女性","","","","一致","j","1"
"null","","null","","html-keyboard-response","29","199369","0.0-5.0-2.0-0.7","2","6mum9z0d4xyv","18","女性","","","","","",""
"null","<p style=""font-size: 48px"">+</p>","null","","html-keyboard-response","30","199888","0.0-5.0-2.0-1.7","2","6mum9z0d4xyv","18","女性","","","","","",""
"494","<p style=""font-size: 48px""><<<<<</p>","f","flanker_practice","html-keyboard-response","31","200384","0.0-5.0-2.0-2.7","2","6mum9z0d4xyv","18","女性","","","","一致","f","1"
"null","","null","","html-keyboard-response","32","200888","0.0-5.0-2.0-0.8","2","6mum9z0d4xyv","18","女性","","","","","",""
"null","<p style=""font-size: 48px"">+</p>","null","","html-keyboard-response","33","201408","0.0-5.0-2.0-1.8","2","6mum9z0d4xyv","18","女性","","","","","",""
"366","<p style=""font-size: 48px"">>><>></p>","j","flanker_practice","html-keyboard-response","34","201776","0.0-5.0-2.0-2.8","2","6mum9z0d4xyv","18","女性","","","","不一致","f","0"
"null","","null","","html-keyboard-response","35","202288","0.0-5.0-2.0-0.9","2","6mum9z0d4xyv","18","女性","","","","","",""
"null","<p style=""font-size: 48px"">+</p>","null","","html-keyboard-response","36","202799","0.0-5.0-2.0-1.9","2","6mum9z0d4xyv","18","女性","","","","","",""
"529","<p style=""font-size: 48px"">--<--</p>","f","flanker_practice","html-keyboard-response","37","203329","0.0-5.0-2.0-2.9","2","6mum9z0d4xyv","18","女性","","","","中性","f","1"
"null","","null","","html-keyboard-response","38","203838","0.0-5.0-2.0-0.10","2","6mum9z0d4xyv","18","女性","","","","","",""
"null","<p style=""font-size: 48px"">+</p>","null","","html-keyboard-response","39","204358","0.0-5.0-2.0-1.10","2","6mum9z0d4xyv","18","女性","","","","","",""
"585","<p style=""font-size: 48px""><<><<</p>","j","flanker_practice","html-keyboard-response","40","204944","0.0-5.0-2.0-2.10","2","6mum9z0d4xyv","18","女性","","","","不一致","j","1"
"null","","null","","html-keyboard-response","41","205458","0.0-5.0-2.0-0.11","2","6mum9z0d4xyv","18","女性","","","","","",""
"null","<p style=""font-size: 48px"">+</p>","null","","html-keyboard-response","42","205974","0.0-5.0-2.0-1.11","2","6mum9z0d4xyv","18","女性","","","","","",""
"472","<p style=""font-size: 48px"">-->--</p>","j","flanker_practice","html-keyboard-response","43","206448","0.0-5.0-2.0-2.11","2","6mum9z0d4xyv","18","女性","","","","中性","j","1"
"4287","それでは本番を行います。<br>準備ができたら「f」キーか「j」キーを押して課題を開始してください。","f","instruction","html-keyboard-response","44","210736","0.0-5.0-3.0","2","6mum9z0d4xyv","18","女性","","","","","",""
"null","","null","","html-keyboard-response","45","211248","0.0-5.0-4.0-0.0","2","6mum9z0d4xyv","18","女性","","","","","",""
"null","<p style=""font-size: 48px"">+</p>","null","","html-keyboard-response","46","211769","0.0-5.0-4.0-1.0","2","6mum9z0d4xyv","18","女性","","","","","",""
"550","<p style=""font-size: 48px"">>><>></p>","f","flanker_main","html-keyboard-response","47","212320","0.0-5.0-4.0-2.0","2","6mum9z0d4xyv","18","女性","","","","不一致","f","1"
"null","","null","","html-keyboard-response","48","212828","0.0-5.0-4.0-0.1","2","6mum9z0d4xyv","18","女性","","","","","",""
"null","<p style=""font-size: 48px"">+</p>","null","","html-keyboard-response","49","213349","0.0-5.0-4.0-1.1","2","6mum9z0d4xyv","18","女性","","","","","",""
"394","<p style=""font-size: 48px"">-->--</p>","j","flanker_main","html-keyboard-response","50","213744","0.0-5.0-4.0-2.1","2","6mum9z0d4xyv","18","女性","","","","中性","j","1"
"null","","null","","html-keyboard-response","51","214258","0.0-5.0-4.0-0.2","2","6mum9z0d4xyv","18","女性","","","","","",""
"null","<p style=""font-size: 48px"">+</p>","null","","html-keyboard-response","52","214779","0.0-5.0-4.0-1.2","2","6mum9z0d4xyv","18","女性","","","","","",""
"468","<p style=""font-size: 48px""><<<<<</p>","f","flanker_main","html-keyboard-response","53","215248","0.0-5.0-4.0-2.2","2","6mum9z0d4xyv","18","女性","","","","一致","f","1"
"null","","null","","html-keyboard-response","54","215758","0.0-5.0-4.0-0.3","2","6mum9z0d4xyv","18","女性","","","","","",""
"null","<p style=""font-size: 48px"">+</p>","null","","html-keyboard-response","55","216278","0.0-5.0-4.0-1.3","2","6mum9z0d4xyv","18","女性","","","","","",""
"521","<p style=""font-size: 48px"">>><>></p>","f","flanker_main","html-keyboard-response","56","216800","0.0-5.0-4.0-2.3","2","6mum9z0d4xyv","18","女性","","","","不一致","f","1"
"null","","null","","html-keyboard-response","57","217319","0.0-5.0-4.0-0.4","2","6mum9z0d4xyv","18","女性","","","","","",""
"null","<p style=""font-size: 48px"">+</p>","null","","html-keyboard-response","58","217839","0.0-5.0-4.0-1.4","2","6mum9z0d4xyv","18","女性","","","","","",""
"386","<p style=""font-size: 48px"">-->--</p>","j","flanker_main","html-keyboard-response","59","218226","0.0-5.0-4.0-2.4","2","6mum9z0d4xyv","18","女性","","","","中性","j","1"
"null","","null","","html-keyboard-response","60","218739","0.0-5.0-4.0-0.5","2","6mum9z0d4xyv","18","女性","","","","","",""
"null","<p style=""font-size: 48px"">+</p>","null","","html-keyboard-response","61","219258","0.0-5.0-4.0-1.5","2","6mum9z0d4xyv","18","女性","","","","","",""
"436","<p style=""font-size: 48px""><<<<<</p>","f","flanker_main","html-keyboard-response","62","219696","0.0-5.0-4.0-2.5","2","6mum9z0d4xyv","18","女性","","","","一致","f","1"
"null","","null","","html-keyboard-response","63","220208","0.0-5.0-4.0-0.6","2","6mum9z0d4xyv","18","女性","","","","","",""
"null","<p style=""font-size: 48px"">+</p>","null","","html-keyboard-response","64","220708","0.0-5.0-4.0-1.6","2","6mum9z0d4xyv","18","女性","","","","","",""
"394","<p style=""font-size: 48px"">-->--</p>","j","flanker_main","html-keyboard-response","65","221104","0.0-5.0-4.0-2.6","2","6mum9z0d4xyv","18","女性","","","","中性","j","1"
"null","","null","","html-keyboard-response","66","221608","0.0-5.0-4.0-0.7","2","6mum9z0d4xyv","18","女性","","","","","",""
"null","<p style=""font-size: 48px"">+</p>","null","","html-keyboard-response","67","222129","0.0-5.0-4.0-1.7","2","6mum9z0d4xyv","18","女性","","","","","",""
"463","<p style=""font-size: 48px"">-->--</p>","j","flanker_main","html-keyboard-response","68","222592","0.0-5.0-4.0-2.7","2","6mum9z0d4xyv","18","女性","","","","中性","j","1"
"null","","null","","html-keyboard-response","69","223105","0.0-5.0-4.0-0.8","2","6mum9z0d4xyv","18","女性","","","","","",""
"null","<p style=""font-size: 48px"">+</p>","null","","html-keyboard-response","70","223628","0.0-5.0-4.0-1.8","2","6mum9z0d4xyv","18","女性","","","","","",""
"481","<p style=""font-size: 48px""><<<<<</p>","f","flanker_main","html-keyboard-response","71","224110","0.0-5.0-4.0-2.8","2","6mum9z0d4xyv","18","女性","","","","一致","f","1"
"null","","null","","html-keyboard-response","72","224628","0.0-5.0-4.0-0.9","2","6mum9z0d4xyv","18","女性","","","","","",""
"null","<p style=""font-size: 48px"">+</p>","null","","html-keyboard-response","73","225149","0.0-5.0-4.0-1.9","2","6mum9z0d4xyv","18","女性","","","","","",""
"531","<p style=""font-size: 48px""><<><<</p>","j","flanker_main","html-keyboard-response","74","225680","0.0-5.0-4.0-2.9","2","6mum9z0d4xyv","18","女性","","","","不一致","j","1"
"null","","null","","html-keyboard-response","75","226199","0.0-5.0-4.0-0.10","2","6mum9z0d4xyv","18","女性","","","","","",""
"null","<p style=""font-size: 48px"">+</p>","null","","html-keyboard-response","76","226719","0.0-5.0-4.0-1.10","2","6mum9z0d4xyv","18","女性","","","","","",""
"416","<p style=""font-size: 48px"">--<--</p>","f","flanker_main","html-keyboard-response","77","227135","0.0-5.0-4.0-2.10","2","6mum9z0d4xyv","18","女性","","","","中性","f","1"
"null","","null","","html-keyboard-response","78","227639","0.0-5.0-4.0-0.11","2","6mum9z0d4xyv","18","女性","","","","","",""
"null","<p style=""font-size: 48px"">+</p>","null","","html-keyboard-response","79","228159","0.0-5.0-4.0-1.11","2","6mum9z0d4xyv","18","女性","","","","","",""
"354","<p style=""font-size: 48px"">-->--</p>","j","flanker_main","html-keyboard-response","80","228513","0.0-5.0-4.0-2.11","2","6mum9z0d4xyv","18","女性","","","","中性","j","1"
"null","","null","","html-keyboard-response","81","229029","0.0-5.0-4.0-0.12","2","6mum9z0d4xyv","18","女性","","","","","",""
"null","<p style=""font-size: 48px"">+</p>","null","","html-keyboard-response","82","229548","0.0-5.0-4.0-1.12","2","6mum9z0d4xyv","18","女性","","","","","",""
"387","<p style=""font-size: 48px"">>>>>></p>","j","flanker_main","html-keyboard-response","83","229936","0.0-5.0-4.0-2.12","2","6mum9z0d4xyv","18","女性","","","","一致","j","1"
"null","","null","","html-keyboard-response","84","230448","0.0-5.0-4.0-0.13","2","6mum9z0d4xyv","18","女性","","","","","",""
"null","<p style=""font-size: 48px"">+</p>","null","","html-keyboard-response","85","230969","0.0-5.0-4.0-1.13","2","6mum9z0d4xyv","18","女性","","","","","",""
"392","<p style=""font-size: 48px"">--<--</p>","f","flanker_main","html-keyboard-response","86","231361","0.0-5.0-4.0-2.13","2","6mum9z0d4xyv","18","女性","","","","中性","f","1"
"null","","null","","html-keyboard-response","87","231868","0.0-5.0-4.0-0.14","2","6mum9z0d4xyv","18","女性","","","","","",""
"null","<p style=""font-size: 48px"">+</p>","null","","html-keyboard-response","88","232388","0.0-5.0-4.0-1.14","2","6mum9z0d4xyv","18","女性","","","","","",""
"379","<p style=""font-size: 48px"">>>>>></p>","j","flanker_main","html-keyboard-response","89","232768","0.0-5.0-4.0-2.14","2","6mum9z0d4xyv","18","女性","","","","一致","j","1"
"null","","null","","html-keyboard-response","90","233287","0.0-5.0-4.0-0.15","2","6mum9z0d4xyv","18","女性","","","","","",""
"null","<p style=""font-size: 48px"">+</p>","null","","html-keyboard-response","91","233789","0.0-5.0-4.0-1.15","2","6mum9z0d4xyv","18","女性","","","","","",""
"354","<p style=""font-size: 48px"">--<--</p>","f","flanker_main","html-keyboard-response","92","234144","0.0-5.0-4.0-2.15","2","6mum9z0d4xyv","18","女性","","","","中性","f","1"
"null","","null","","html-keyboard-response","93","234648","0.0-5.0-4.0-0.16","2","6mum9z0d4xyv","18","女性","","","","","",""
"null","<p style=""font-size: 48px"">+</p>","null","","html-keyboard-response","94","235150","0.0-5.0-4.0-1.16","2","6mum9z0d4xyv","18","女性","","","","","",""
"432","<p style=""font-size: 48px"">>>>>></p>","j","flanker_main","html-keyboard-response","95","235584","0.0-5.0-4.0-2.16","2","6mum9z0d4xyv","18","女性","","","","一致","j","1"
"null","","null","","html-keyboard-response","96","236099","0.0-5.0-4.0-0.17","2","6mum9z0d4xyv","18","女性","","","","","",""
"null","<p style=""font-size: 48px"">+</p>","null","","html-keyboard-response","97","236619","0.0-5.0-4.0-1.17","2","6mum9z0d4xyv","18","女性","","","","","",""
"388","<p style=""font-size: 48px"">>><>></p>","j","flanker_main","html-keyboard-response","98","237008","0.0-5.0-4.0-2.17","2","6mum9z0d4xyv","18","女性","","","","不一致","f","0"
"null","","null","","html-keyboard-response","99","237519","0.0-5.0-4.0-0.18","2","6mum9z0d4xyv","18","女性","","","","","",""
"null","<p style=""font-size: 48px"">+</p>","null","","html-keyboard-response","100","238038","0.0-5.0-4.0-1.18","2","6mum9z0d4xyv","18","女性","","","","","",""
"473","<p style=""font-size: 48px""><<><<</p>","j","flanker_main","html-keyboard-response","101","238512","0.0-5.0-4.0-2.18","2","6mum9z0d4xyv","18","女性","","","","不一致","j","1"
"null","","null","","html-keyboard-response","102","239018","0.0-5.0-4.0-0.19","2","6mum9z0d4xyv","18","女性","","","","","",""
"null","<p style=""font-size: 48px"">+</p>","null","","html-keyboard-response","103","239533","0.0-5.0-4.0-1.19","2","6mum9z0d4xyv","18","女性","","","","","",""
"403","<p style=""font-size: 48px"">>>>>></p>","j","flanker_main","html-keyboard-response","104","239937","0.0-5.0-4.0-2.19","2","6mum9z0d4xyv","18","女性","","","","一致","j","1"
"null","","null","","html-keyboard-response","105","240458","0.0-5.0-4.0-0.20","2","6mum9z0d4xyv","18","女性","","","","","",""
"null","<p style=""font-size: 48px"">+</p>","null","","html-keyboard-response","106","240979","0.0-5.0-4.0-1.20","2","6mum9z0d4xyv","18","女性","","","","","",""
"444","<p style=""font-size: 48px""><<<<<</p>","f","flanker_main","html-keyboard-response","107","241423","0.0-5.0-4.0-2.20","2","6mum9z0d4xyv","18","女性","","","","一致","f","1"
"null","","null","","html-keyboard-response","108","241929","0.0-5.0-4.0-0.21","2","6mum9z0d4xyv","18","女性","","","","","",""
"null","<p style=""font-size: 48px"">+</p>","null","","html-keyboard-response","109","242448","0.0-5.0-4.0-1.21","2","6mum9z0d4xyv","18","女性","","","","","",""
"415","<p style=""font-size: 48px""><<><<</p>","j","flanker_main","html-keyboard-response","110","242864","0.0-5.0-4.0-2.21","2","6mum9z0d4xyv","18","女性","","","","不一致","j","1"
"null","","null","","html-keyboard-response","111","243369","0.0-5.0-4.0-0.22","2","6mum9z0d4xyv","18","女性","","","","","",""
"null","<p style=""font-size: 48px"">+</p>","null","","html-keyboard-response","112","243889","0.0-5.0-4.0-1.22","2","6mum9z0d4xyv","18","女性","","","","","",""
"398","<p style=""font-size: 48px""><<<<<</p>","f","flanker_main","html-keyboard-response","113","244288","0.0-5.0-4.0-2.22","2","6mum9z0d4xyv","18","女性","","","","一致","f","1"
"null","","null","","html-keyboard-response","114","244799","0.0-5.0-4.0-0.23","2","6mum9z0d4xyv","18","女性","","","","","",""
"null","<p style=""font-size: 48px"">+</p>","null","","html-keyboard-response","115","245310","0.0-5.0-4.0-1.23","2","6mum9z0d4xyv","18","女性","","","","","",""
"352","<p style=""font-size: 48px"">-->--</p>","f","flanker_main","html-keyboard-response","116","245663","0.0-5.0-4.0-2.23","2","6mum9z0d4xyv","18","女性","","","","中性","j","0"
"null","","null","","html-keyboard-response","117","246168","0.0-5.0-4.0-0.24","2","6mum9z0d4xyv","18","女性","","","","","",""
"null","<p style=""font-size: 48px"">+</p>","null","","html-keyboard-response","118","246688","0.0-5.0-4.0-1.24","2","6mum9z0d4xyv","18","女性","","","","","",""
"510","<p style=""font-size: 48px"">>><>></p>","f","flanker_main","html-keyboard-response","119","247199","0.0-5.0-4.0-2.24","2","6mum9z0d4xyv","18","女性","","","","不一致","f","1"
"null","","null","","html-keyboard-response","120","247709","0.0-5.0-4.0-0.25","2","6mum9z0d4xyv","18","女性","","","","","",""
"null","<p style=""font-size: 48px"">+</p>","null","","html-keyboard-response","121","248229","0.0-5.0-4.0-1.25","2","6mum9z0d4xyv","18","女性","","","","","",""
"459","<p style=""font-size: 48px"">--<--</p>","f","flanker_main","html-keyboard-response","122","248689","0.0-5.0-4.0-2.25","2","6mum9z0d4xyv","18","女性","","","","中性","f","1"
"null","","null","","html-keyboard-response","123","249208","0.0-5.0-4.0-0.26","2","6mum9z0d4xyv","18","女性","","","","","",""
"null","<p style=""font-size: 48px"">+</p>","null","","html-keyboard-response","124","249729","0.0-5.0-4.0-1.26","2","6mum9z0d4xyv","18","女性","","","","","",""
"430","<p style=""font-size: 48px""><<><<</p>","j","flanker_main","html-keyboard-response","125","250159","0.0-5.0-4.0-2.26","2","6mum9z0d4xyv","18","女性","","","","不一致","j","1"
"null","","null","","html-keyboard-response","126","250668","0.0-5.0-4.0-0.27","2","6mum9z0d4xyv","18","女性","","","","","",""
"null","<p style=""font-size: 48px"">+</p>","null","","html-keyboard-response","127","251188","0.0-5.0-4.0-1.27","2","6mum9z0d4xyv","18","女性","","","","","",""
"444","<p style=""font-size: 48px"">>>>>></p>","j","flanker_main","html-keyboard-response","128","251632","0.0-5.0-4.0-2.27","2","6mum9z0d4xyv","18","女性","","","","一致","j","1"
"null","","null","","html-keyboard-response","129","252148","0.0-5.0-4.0-0.28","2","6mum9z0d4xyv","18","女性","","","","","",""
"null","<p style=""font-size: 48px"">+</p>","null","","html-keyboard-response","130","252668","0.0-5.0-4.0-1.28","2","6mum9z0d4xyv","18","女性","","","","","",""
"466","<p style=""font-size: 48px"">>><>></p>","f","flanker_main","html-keyboard-response","131","253136","0.0-5.0-4.0-2.28","2","6mum9z0d4xyv","18","女性","","","","不一致","f","1"
"null","","null","","html-keyboard-response","132","253648","0.0-5.0-4.0-0.29","2","6mum9z0d4xyv","18","女性","","","","","",""
"null","<p style=""font-size: 48px"">+</p>","null","","html-keyboard-response","133","254168","0.0-5.0-4.0-1.29","2","6mum9z0d4xyv","18","女性","","","","","",""
"424","<p style=""font-size: 48px"">>>>>></p>","j","flanker_main","html-keyboard-response","134","254593","0.0-5.0-4.0-2.29","2","6mum9z0d4xyv","18","女性","","","","一致","j","1"
"null","","null","","html-keyboard-response","135","255108","0.0-5.0-4.0-0.30","2","6mum9z0d4xyv","18","女性","","","","","",""
"null","<p style=""font-size: 48px"">+</p>","null","","html-keyboard-response","136","255629","0.0-5.0-4.0-1.30","2","6mum9z0d4xyv","18","女性","","","","","",""
"434","<p style=""font-size: 48px""><<><<</p>","j","flanker_main","html-keyboard-response","137","256064","0.0-5.0-4.0-2.30","2","6mum9z0d4xyv","18","女性","","","","不一致","j","1"
"null","","null","","html-keyboard-response","138","256569","0.0-5.0-4.0-0.31","2","6mum9z0d4xyv","18","女性","","","","","",""
"null","<p style=""font-size: 48px"">+</p>","null","","html-keyboard-response","139","257088","0.0-5.0-4.0-1.31","2","6mum9z0d4xyv","18","女性","","","","","",""
"428","<p style=""font-size: 48px"">--<--</p>","f","flanker_main","html-keyboard-response","140","257518","0.0-5.0-4.0-2.31","2","6mum9z0d4xyv","18","女性","","","","中性","f","1"
"null","","null","","html-keyboard-response","141","258028","0.0-5.0-4.0-0.32","2","6mum9z0d4xyv","18","女性","","","","","",""
"null","<p style=""font-size: 48px"">+</p>","null","","html-keyboard-response","142","258549","0.0-5.0-4.0-1.32","2","6mum9z0d4xyv","18","女性","","","","","",""
"361","<p style=""font-size: 48px"">-->--</p>","j","flanker_main","html-keyboard-response","143","258914","0.0-5.0-4.0-2.32","2","6mum9z0d4xyv","18","女性","","","","中性","j","1"
"null","","null","","html-keyboard-response","144","259428","0.0-5.0-4.0-0.33","2","6mum9z0d4xyv","18","女性","","","","","",""
"null","<p style=""font-size: 48px"">+</p>","null","","html-keyboard-response","145","259948","0.0-5.0-4.0-1.33","2","6mum9z0d4xyv","18","女性","","","","","",""
"463","<p style=""font-size: 48px""><<><<</p>","j","flanker_main","html-keyboard-response","146","260413","0.0-5.0-4.0-2.33","2","6mum9z0d4xyv","18","女性","","","","不一致","j","1"
"null","","null","","html-keyboard-response","147","260929","0.0-5.0-4.0-0.34","2","6mum9z0d4xyv","18","女性","","","","","",""
"null","<p style=""font-size: 48px"">+</p>","null","","html-keyboard-response","148","261448","0.0-5.0-4.0-1.34","2","6mum9z0d4xyv","18","女性","","","","","",""
"390","<p style=""font-size: 48px"">-->--</p>","j","flanker_main","html-keyboard-response","149","261839","0.0-5.0-4.0-2.34","2","6mum9z0d4xyv","18","女性","","","","中性","j","1"
"null","","null","","html-keyboard-response","150","262348","0.0-5.0-4.0-0.35","2","6mum9z0d4xyv","18","女性","","","","","",""
"null","<p style=""font-size: 48px"">+</p>","null","","html-keyboard-response","151","262868","0.0-5.0-4.0-1.35","2","6mum9z0d4xyv","18","女性","","","","","",""
"443","<p style=""font-size: 48px"">--<--</p>","f","flanker_main","html-keyboard-response","152","263313","0.0-5.0-4.0-2.35","2","6mum9z0d4xyv","18","女性","","","","中性","f","1"
"null","","null","","html-keyboard-response","153","263828","0.0-5.0-4.0-0.36","2","6mum9z0d4xyv","18","女性","","","","","",""
"null","<p style=""font-size: 48px"">+</p>","null","","html-keyboard-response","154","264349","0.0-5.0-4.0-1.36","2","6mum9z0d4xyv","18","女性","","","","","",""
"546","<p style=""font-size: 48px"">>>>>></p>","j","flanker_main","html-keyboard-response","155","264896","0.0-5.0-4.0-2.36","2","6mum9z0d4xyv","18","女性","","","","一致","j","1"
"null","","null","","html-keyboard-response","156","265408","0.0-5.0-4.0-0.37","2","6mum9z0d4xyv","18","女性","","","","","",""
"null","<p style=""font-size: 48px"">+</p>","null","","html-keyboard-response","157","265928","0.0-5.0-4.0-1.37","2","6mum9z0d4xyv","18","女性","","","","","",""
"518","<p style=""font-size: 48px"">>><>></p>","f","flanker_main","html-keyboard-response","158","266449","0.0-5.0-4.0-2.37","2","6mum9z0d4xyv","18","女性","","","","不一致","f","1"
"null","","null","","html-keyboard-response","159","266968","0.0-5.0-4.0-0.38","2","6mum9z0d4xyv","18","女性","","","","","",""
"null","<p style=""font-size: 48px"">+</p>","null","","html-keyboard-response","160","267478","0.0-5.0-4.0-1.38","2","6mum9z0d4xyv","18","女性","","","","","",""
"377","<p style=""font-size: 48px""><<<<<</p>","f","flanker_main","html-keyboard-response","161","267856","0.0-5.0-4.0-2.38","2","6mum9z0d4xyv","18","女性","","","","一致","f","1"
"null","","null","","html-keyboard-response","162","268358","0.0-5.0-4.0-0.39","2","6mum9z0d4xyv","18","女性","","","","","",""
"null","<p style=""font-size: 48px"">+</p>","null","","html-keyboard-response","163","268878","0.0-5.0-4.0-1.39","2","6mum9z0d4xyv","18","女性","","","","","",""
"464","<p style=""font-size: 48px""><<<<<</p>","f","flanker_main","html-keyboard-response","164","269343","0.0-5.0-4.0-2.39","2","6mum9z0d4xyv","18","女性","","","","一致","f","1"
"null","","null","","html-keyboard-response","165","269859","0.0-5.0-4.0-0.40","2","6mum9z0d4xyv","18","女性","","","","","",""
"null","<p style=""font-size: 48px"">+</p>","null","","html-keyboard-response","166","270378","0.0-5.0-4.0-1.40","2","6mum9z0d4xyv","18","女性","","","","","",""
"387","<p style=""font-size: 48px"">--<--</p>","f","flanker_main","html-keyboard-response","167","270767","0.0-5.0-4.0-2.40","2","6mum9z0d4xyv","18","女性","","","","中性","f","1"
"null","","null","","html-keyboard-response","168","271278","0.0-5.0-4.0-0.41","2","6mum9z0d4xyv","18","女性","","","","","",""
"null","<p style=""font-size: 48px"">+</p>","null","","html-keyboard-response","169","271798","0.0-5.0-4.0-1.41","2","6mum9z0d4xyv","18","女性","","","","","",""
"442","<p style=""font-size: 48px""><<><<</p>","j","flanker_main","html-keyboard-response","170","272241","0.0-5.0-4.0-2.41","2","6mum9z0d4xyv","18","女性","","","","不一致","j","1"
"null","","null","","html-keyboard-response","171","272757","0.0-5.0-4.0-0.42","2","6mum9z0d4xyv","18","女性","","","","","",""
"null","<p style=""font-size: 48px"">+</p>","null","","html-keyboard-response","172","273279","0.0-5.0-4.0-1.42","2","6mum9z0d4xyv","18","女性","","","","","",""
"338","<p style=""font-size: 48px""><<><<</p>","f","flanker_main","html-keyboard-response","173","273617","0.0-5.0-4.0-2.42","2","6mum9z0d4xyv","18","女性","","","","不一致","j","0"
"null","","null","","html-keyboard-response","174","274118","0.0-5.0-4.0-0.43","2","6mum9z0d4xyv","18","女性","","","","","",""
"null","<p style=""font-size: 48px"">+</p>","null","","html-keyboard-response","175","274638","0.0-5.0-4.0-1.43","2","6mum9z0d4xyv","18","女性","","","","","",""
"384","<p style=""font-size: 48px"">--<--</p>","f","flanker_main","html-keyboard-response","176","275023","0.0-5.0-4.0-2.43","2","6mum9z0d4xyv","18","女性","","","","中性","f","1"
"null","","null","","html-keyboard-response","177","275538","0.0-5.0-4.0-0.44","2","6mum9z0d4xyv","18","女性","","","","","",""
"null","<p style=""font-size: 48px"">+</p>","null","","html-keyboard-response","178","276059","0.0-5.0-4.0-1.44","2","6mum9z0d4xyv","18","女性","","","","","",""
"404","<p style=""font-size: 48px"">--<--</p>","f","flanker_main","html-keyboard-response","179","276464","0.0-5.0-4.0-2.44","2","6mum9z0d4xyv","18","女性","","","","中性","f","1"
"null","","null","","html-keyboard-response","180","276979","0.0-5.0-4.0-0.45","2","6mum9z0d4xyv","18","女性","","","","","",""
"null","<p style=""font-size: 48px"">+</p>","null","","html-keyboard-response","181","277499","0.0-5.0-4.0-1.45","2","6mum9z0d4xyv","18","女性","","","","","",""
"372","<p style=""font-size: 48px"">-->--</p>","j","flanker_main","html-keyboard-response","182","277872","0.0-5.0-4.0-2.45","2","6mum9z0d4xyv","18","女性","","","","中性","j","1"
"null","","null","","html-keyboard-response","183","278378","0.0-5.0-4.0-0.46","2","6mum9z0d4xyv","18","女性","","","","","",""
"null","<p style=""font-size: 48px"">+</p>","null","","html-keyboard-response","184","278898","0.0-5.0-4.0-1.46","2","6mum9z0d4xyv","18","女性","","","","","",""
"397","<p style=""font-size: 48px"">-->--</p>","j","flanker_main","html-keyboard-response","185","279297","0.0-5.0-4.0-2.46","2","6mum9z0d4xyv","18","女性","","","","中性","j","1"
"null","","null","","html-keyboard-response","186","279798","0.0-5.0-4.0-0.47","2","6mum9z0d4xyv","18","女性","","","","","",""
"null","<p style=""font-size: 48px"">+</p>","null","","html-keyboard-response","187","280318","0.0-5.0-4.0-1.47","2","6mum9z0d4xyv","18","女性","","","","","",""
"464","<p style=""font-size: 48px""><<<<<</p>","f","flanker_main","html-keyboard-response","188","280784","0.0-5.0-4.0-2.47","2","6mum9z0d4xyv","18","女性","","","","一致","f","1"
"null","","null","","html-keyboard-response","189","281289","0.0-5.0-4.0-0.48","2","6mum9z0d4xyv","18","女性","","","","","",""
"null","<p style=""font-size: 48px"">+</p>","null","","html-keyboard-response","190","281809","0.0-5.0-4.0-1.48","2","6mum9z0d4xyv","18","女性","","","","","",""
"414","<p style=""font-size: 48px"">>>>>></p>","j","flanker_main","html-keyboard-response","191","282224","0.0-5.0-4.0-2.48","2","6mum9z0d4xyv","18","女性","","","","一致","j","1"
"null","","null","","html-keyboard-response","192","282728","0.0-5.0-4.0-0.49","2","6mum9z0d4xyv","18","女性","","","","","",""
"null","<p style=""font-size: 48px"">+</p>","null","","html-keyboard-response","193","283248","0.0-5.0-4.0-1.49","2","6mum9z0d4xyv","18","女性","","","","","",""
"400","<p style=""font-size: 48px""><<<<<</p>","f","flanker_main","html-keyboard-response","194","283648","0.0-5.0-4.0-2.49","2","6mum9z0d4xyv","18","女性","","","","一致","f","1"
"null","","null","","html-keyboard-response","195","284169","0.0-5.0-4.0-0.50","2","6mum9z0d4xyv","18","女性","","","","","",""
"null","<p style=""font-size: 48px"">+</p>","null","","html-keyboard-response","196","284688","0.0-5.0-4.0-1.50","2","6mum9z0d4xyv","18","女性","","","","","",""
"350","<p style=""font-size: 48px"">>><>></p>","f","flanker_main","html-keyboard-response","197","285040","0.0-5.0-4.0-2.50","2","6mum9z0d4xyv","18","女性","","","","不一致","f","1"
"null","","null","","html-keyboard-response","198","285548","0.0-5.0-4.0-0.51","2","6mum9z0d4xyv","18","女性","","","","","",""
"null","<p style=""font-size: 48px"">+</p>","null","","html-keyboard-response","199","286052","0.0-5.0-4.0-1.51","2","6mum9z0d4xyv","18","女性","","","","","",""
"427","<p style=""font-size: 48px"">>>>>></p>","j","flanker_main","html-keyboard-response","200","286480","0.0-5.0-4.0-2.51","2","6mum9z0d4xyv","18","女性","","","","一致","j","1"
"null","","null","","html-keyboard-response","201","286988","0.0-5.0-4.0-0.52","2","6mum9z0d4xyv","18","女性","","","","","",""
"null","<p style=""font-size: 48px"">+</p>","null","","html-keyboard-response","202","287499","0.0-5.0-4.0-1.52","2","6mum9z0d4xyv","18","女性","","","","","",""
"452","<p style=""font-size: 48px"">>><>></p>","f","flanker_main","html-keyboard-response","203","287952","0.0-5.0-4.0-2.52","2","6mum9z0d4xyv","18","女性","","","","不一致","f","1"
"null","","null","","html-keyboard-response","204","288469","0.0-5.0-4.0-0.53","2","6mum9z0d4xyv","18","女性","","","","","",""
"null","<p style=""font-size: 48px"">+</p>","null","","html-keyboard-response","205","288988","0.0-5.0-4.0-1.53","2","6mum9z0d4xyv","18","女性","","","","","",""
"515","<p style=""font-size: 48px"">>><>></p>","f","flanker_main","html-keyboard-response","206","289504","0.0-5.0-4.0-2.53","2","6mum9z0d4xyv","18","女性","","","","不一致","f","1"
"null","","null","","html-keyboard-response","207","290009","0.0-5.0-4.0-0.54","2","6mum9z0d4xyv","18","女性","","","","","",""
"null","<p style=""font-size: 48px"">+</p>","null","","html-keyboard-response","208","290528","0.0-5.0-4.0-1.54","2","6mum9z0d4xyv","18","女性","","","","","",""
"430","<p style=""font-size: 48px""><<><<</p>","j","flanker_main","html-keyboard-response","209","290960","0.0-5.0-4.0-2.54","2","6mum9z0d4xyv","18","女性","","","","不一致","j","1"
"null","","null","","html-keyboard-response","210","291468","0.0-5.0-4.0-0.55","2","6mum9z0d4xyv","18","女性","","","","","",""
"null","<p style=""font-size: 48px"">+</p>","null","","html-keyboard-response","211","291988","0.0-5.0-4.0-1.55","2","6mum9z0d4xyv","18","女性","","","","","",""
"490","<p style=""font-size: 48px""><<><<</p>","j","flanker_main","html-keyboard-response","212","292479","0.0-5.0-4.0-2.55","2","6mum9z0d4xyv","18","女性","","","","不一致","j","1"
"null","","null","","html-keyboard-response","213","292988","0.0-5.0-4.0-0.56","2","6mum9z0d4xyv","18","女性","","","","","",""
"null","<p style=""font-size: 48px"">+</p>","null","","html-keyboard-response","214","293508","0.0-5.0-4.0-1.56","2","6mum9z0d4xyv","18","女性","","","","","",""
"426","<p style=""font-size: 48px"">>><>></p>","f","flanker_main","html-keyboard-response","215","293936","0.0-5.0-4.0-2.56","2","6mum9z0d4xyv","18","女性","","","","不一致","f","1"
"null","","null","","html-keyboard-response","216","294448","0.0-5.0-4.0-0.57","2","6mum9z0d4xyv","18","女性","","","","","",""
"null","<p style=""font-size: 48px"">+</p>","null","","html-keyboard-response","217","294968","0.0-5.0-4.0-1.57","2","6mum9z0d4xyv","18","女性","","","","","",""
"406","<p style=""font-size: 48px"">>>>>></p>","j","flanker_main","html-keyboard-response","218","295376","0.0-5.0-4.0-2.57","2","6mum9z0d4xyv","18","女性","","","","一致","j","1"
"null","","null","","html-keyboard-response","219","295889","0.0-5.0-4.0-0.58","2","6mum9z0d4xyv","18","女性","","","","","",""
"null","<p style=""font-size: 48px"">+</p>","null","","html-keyboard-response","220","296408","0.0-5.0-4.0-1.58","2","6mum9z0d4xyv","18","女性","","","","","",""
"359","<p style=""font-size: 48px""><<<<<</p>","f","flanker_main","html-keyboard-response","221","296768","0.0-5.0-4.0-2.58","2","6mum9z0d4xyv","18","女性","","","","一致","f","1"
"null","","null","","html-keyboard-response","222","297288","0.0-5.0-4.0-0.59","2","6mum9z0d4xyv","18","女性","","","","","",""
"null","<p style=""font-size: 48px"">+</p>","null","","html-keyboard-response","223","297808","0.0-5.0-4.0-1.59","2","6mum9z0d4xyv","18","女性","","","","","",""
"365","<p style=""font-size: 48px"">--<--</p>","f","flanker_main","html-keyboard-response","224","298175","0.0-5.0-4.0-2.59","2","6mum9z0d4xyv","18","女性","","","","中性","f","1"
"","","","","call-function","225","298177","0.0-5.0-5.0","2","6mum9z0d4xyv","18","女性","","","","","",""
