"rt","stimulus","response","task","trial_type","trial_index","time_elapsed","internal_node_id","CB","tempID","age","sex","success","question_order","value","condition","key","correct"
"15245.59999999404","これから実験をおこないます（10分程度）。<br>実験の最初に年齢と性別の入力が求められますが，回答に関係なくランダムなデータが保存されます。<br>授業のデモということで個人の特定可能性が高いことを考慮し，このような措置をとりました。<br>フランカー課題と質問紙はご自身の遂行成績・点数が保存されます。<br>収集したデータは分析のデモに使用します。個人が特定されることはないですし，<br>リアルなデータの方が練習にもなるはずなので，これらの課題は真剣に取り組んでもらえれば幸いです。"," ","instruction","html-keyboard-response","0","15248","0.0-0.0","1","8gz0yse3qzro","28","女性","","","","","",""
"","","","instruction","fullscreen","1","20541","0.0-1.0","1","8gz0yse3qzro","28","女性","true","","","","",""
"15569.5","","{""age"":28}","par_info","survey-text","2","36116","0.0-2.0-0.0","1","8gz0yse3qzro","28","女性","","","","","",""
"2342.5","","{""sex"":""女性""}","par_info","survey-multi-choice","3","38460","0.0-2.0-1.0","1","8gz0yse3qzro","28","女性","","[0]","","","",""
"","","","","call-function","4","38461","0.0-3.0-0.0","1","8gz0yse3qzro","28","女性","","","","","",""
"18776.40000000596","これから画面上に５つの矢印（>>>>>など）が表示されます。<br>中央の矢印が左向き（<）なら「f」キーを<br>中央の矢印が右向き（>）なら「j」キーを<br>なるべく早く，正確に押してください<br><br>準備ができたら「f」キーか「j」キーを押して練習を開始してください。","f","instruction","html-keyboard-response","5","57238","0.0-3.0-1.0","1","8gz0yse3qzro","28","女性","","","","","",""
"null","","null","","html-keyboard-response","6","57752","0.0-3.0-2.0-0.0","1","8gz0yse3qzro","28","女性","","","","","",""
"null","<p style=""font-size: 48px"">+</p>","null","","html-keyboard-response","7","58254","0.0-3.0-2.0-1.0","1","8gz0yse3qzro","28","女性","","","","","",""
"496.40000000596046","<p style=""font-size: 48px"">>>>>></p>","j","flanker_practice","html-keyboard-response","8","58754","0.0-3.0-2.0-2.0","1","8gz0yse3qzro","28","女性","","","","一致","j","1"
"null","","null","","html-keyboard-response","9","59265","0.0-3.0-2.0-0.1","1","8gz0yse3qzro","28","女性","","","","","",""
"null","<p style=""font-size: 48px"">+</p>","null","","html-keyboard-response","10","59768","0.0-3.0-2.0-1.1","1","8gz0yse3qzro","28","女性","","","","","",""
"598.1999999880791","<p style=""font-size: 48px"">--<--</p>","f","flanker_practice","html-keyboard-response","11","60368","0.0-3.0-2.0-2.1","1","8gz0yse3qzro","28","女性","","","","中性","f","1"
"null","","null","","html-keyboard-response","12","60872","0.0-3.0-2.0-0.2","1","8gz0yse3qzro","28","女性","","","","","",""
"null","<p style=""font-size: 48px"">+</p>","null","","html-keyboard-response","13","61382","0.0-3.0-2.0-1.2","1","8gz0yse3qzro","28","女性","","","","","",""
"432.2999999821186","<p style=""font-size: 48px"">>><>></p>","j","flanker_practice","html-keyboard-response","14","61815","0.0-3.0-2.0-2.2","1","8gz0yse3qzro","28","女性","","","","不一致","f","0"
"null","","null","","html-keyboard-response","15","62318","0.0-3.0-2.0-0.3","1","8gz0yse3qzro","28","女性","","","","","",""
"null","<p style=""font-size: 48px"">+</p>","null","","html-keyboard-response","16","62831","0.0-3.0-2.0-1.3","1","8gz0yse3qzro","28","女性","","","","","",""
"459","<p style=""font-size: 48px""><<<<<</p>","f","flanker_practice","html-keyboard-response","17","63291","0.0-3.0-2.0-2.3","1","8gz0yse3qzro","28","女性","","","","一致","f","1"
"null","","null","","html-keyboard-response","18","63798","0.0-3.0-2.0-0.4","1","8gz0yse3qzro","28","女性","","","","","",""
"null","<p style=""font-size: 48px"">+</p>","null","","html-keyboard-response","19","64313","0.0-3.0-2.0-1.4","1","8gz0yse3qzro","28","女性","","","","","",""
"493.30000001192093","<p style=""font-size: 48px""><<<<<</p>","f","flanker_practice","html-keyboard-response","20","64807","0.0-3.0-2.0-2.4","1","8gz0yse3qzro","28","女性","","","","一致","f","1"
"null","","null","","html-keyboard-response","21","65322","0.0-3.0-2.0-0.5","1","8gz0yse3qzro","28","女性","","","","","",""
"null","<p style=""font-size: 48px"">+</p>","null","","html-keyboard-response","22","65837","0.0-3.0-2.0-1.5","1","8gz0yse3qzro","28","女性","","","","","",""
"529.0999999940395","<p style=""font-size: 48px"">-->--</p>","j","flanker_practice","html-keyboard-response","23","66367","0.0-3.0-2.0-2.5","1","8gz0yse3qzro","28","女性","","","","中性","j","1"
"null","","null","","html-keyboard-response","24","66873","0.0-3.0-2.0-0.6","1","8gz0yse3qzro","28","女性","","","","","",""
"null","<p style=""font-size: 48px"">+</p>","null","","html-keyboard-response","25","67377","0.0-3.0-2.0-1.6","1","8gz0yse3qzro","28","女性","","","","","",""
"433.09999999403954","<p style=""font-size: 48px"">--<--</p>","f","flanker_practice","html-keyboard-response","26","67811","0.0-3.0-2.0-2.6","1","8gz0yse3qzro","28","女性","","","","中性","f","1"
"null","","null","","html-keyboard-response","27","68320","0.0-3.0-2.0-0.7","1","8gz0yse3qzro","28","女性","","","","","",""
"null","<p style=""font-size: 48px"">+</p>","null","","html-keyboard-response","28","68823","0.0-3.0-2.0-1.7","1","8gz0yse3qzro","28","女性","","","","","",""
"787.3999999761581","<p style=""font-size: 48px""><<><<</p>","j","flanker_practice","html-keyboard-response","29","69611","0.0-3.0-2.0-2.7","1","8gz0yse3qzro","28","女性","","","","不一致","j","1"
"null","","null","","html-keyboard-response","30","70118","0.0-3.0-2.0-0.8","1","8gz0yse3qzro","28","女性","","","","","",""
"null","<p style=""font-size: 48px"">+</p>","null","","html-keyboard-response","31","70619","0.0-3.0-2.0-1.8","1","8gz0yse3qzro","28","女性","","","","","",""
"618.5999999940395","<p style=""font-size: 48px"">>><>></p>","f","flanker_practice","html-keyboard-response","32","71238","0.0-3.0-2.0-2.8","1","8gz0yse3qzro","28","女性","","","","不一致","f","1"
"null","","null","","html-keyboard-response","33","71753","0.0-3.0-2.0-0.9","1","8gz0yse3qzro","28","女性","","","","","",""
"null","<p style=""font-size: 48px"">+</p>","null","","html-keyboard-response","34","72259","0.0-3.0-2.0-1.9","1","8gz0yse3qzro","28","女性","","","","","",""
"527.2000000178814","<p style=""font-size: 48px"">>>>>></p>","j","flanker_practice","html-keyboard-response","35","72787","0.0-3.0-2.0-2.9","1","8gz0yse3qzro","28","女性","","","","一致","j","1"
"null","","null","","html-keyboard-response","36","73289","0.0-3.0-2.0-0.10","1","8gz0yse3qzro","28","女性","","","","","",""
"null","<p style=""font-size: 48px"">+</p>","null","","html-keyboard-response","37","73791","0.0-3.0-2.0-1.10","1","8gz0yse3qzro","28","女性","","","","","",""
"585.9000000059605","<p style=""font-size: 48px""><<><<</p>","j","flanker_practice","html-keyboard-response","38","74378","0.0-3.0-2.0-2.10","1","8gz0yse3qzro","28","女性","","","","不一致","j","1"
"null","","null","","html-keyboard-response","39","74884","0.0-3.0-2.0-0.11","1","8gz0yse3qzro","28","女性","","","","","",""
"null","<p style=""font-size: 48px"">+</p>","null","","html-keyboard-response","40","75395","0.0-3.0-2.0-1.11","1","8gz0yse3qzro","28","女性","","","","","",""
"447","<p style=""font-size: 48px"">-->--</p>","j","flanker_practice","html-keyboard-response","41","75843","0.0-3.0-2.0-2.11","1","8gz0yse3qzro","28","女性","","","","中性","j","1"
"1772.300000011921","それでは本番を行います。<br>準備ができたら「f」キーか「j」キーを押して課題を開始してください。","j","instruction","html-keyboard-response","42","77616","0.0-3.0-3.0","1","8gz0yse3qzro","28","女性","","","","","",""
"null","","null","","html-keyboard-response","43","78124","0.0-3.0-4.0-0.0","1","8gz0yse3qzro","28","女性","","","","","",""
"null","<p style=""font-size: 48px"">+</p>","null","","html-keyboard-response","44","78635","0.0-3.0-4.0-1.0","1","8gz0yse3qzro","28","女性","","","","","",""
"463.09999999403954","<p style=""font-size: 48px"">-->--</p>","j","flanker_main","html-keyboard-response","45","79100","0.0-3.0-4.0-2.0","1","8gz0yse3qzro","28","女性","","","","中性","j","1"
"null","","null","","html-keyboard-response","46","79615","0.0-3.0-4.0-0.1","1","8gz0yse3qzro","28","女性","","","","","",""
"null","<p style=""font-size: 48px"">+</p>","null","","html-keyboard-response","47","80116","0.0-3.0-4.0-1.1","1","8gz0yse3qzro","28","女性","","","","","",""
"649.3000000119209","<p style=""font-size: 48px"">>><>></p>","f","flanker_main","html-keyboard-response","48","80766","0.0-3.0-4.0-2.1","1","8gz0yse3qzro","28","女性","","","","不一致","f","1"
"null","","null","","html-keyboard-response","49","81269","0.0-3.0-4.0-0.2","1","8gz0yse3qzro","28","女性","","","","","",""
"null","<p style=""font-size: 48px"">+</p>","null","","html-keyboard-response","50","81771","0.0-3.0-4.0-1.2","1","8gz0yse3qzro","28","女性","","","","","",""
"456.69999998807907","<p style=""font-size: 48px""><<<<<</p>","f","flanker_main","html-keyboard-response","51","82229","0.0-3.0-4.0-2.2","1","8gz0yse3qzro","28","女性","","","","一致","f","1"
"null","","null","","html-keyboard-response","52","82733","0.0-3.0-4.0-0.3","1","8gz0yse3qzro","28","女性","","","","","",""
"null","<p style=""font-size: 48px"">+</p>","null","","html-keyboard-response","53","83234","0.0-3.0-4.0-1.3","1","8gz0yse3qzro","28","女性","","","","","",""
"570.5","<p style=""font-size: 48px""><<><<</p>","j","flanker_main","html-keyboard-response","54","83806","0.0-3.0-4.0-2.3","1","8gz0yse3qzro","28","女性","","","","不一致","j","1"
"null","","null","","html-keyboard-response","55","84309","0.0-3.0-4.0-0.4","1","8gz0yse3qzro","28","女性","","","","","",""
"null","<p style=""font-size: 48px"">+</p>","null","","html-keyboard-response","56","84823","0.0-3.0-4.0-1.4","1","8gz0yse3qzro","28","女性","","","","","",""
"515.5","<p style=""font-size: 48px""><<><<</p>","j","flanker_main","html-keyboard-response","57","85339","0.0-3.0-4.0-2.4","1","8gz0yse3qzro","28","女性","","","","不一致","j","1"
"null","","null","","html-keyboard-response","58","85852","0.0-3.0-4.0-0.5","1","8gz0yse3qzro","28","女性","","","","","",""
"null","<p style=""font-size: 48px"">+</p>","null","","html-keyboard-response","59","86367","0.0-3.0-4.0-1.5","1","8gz0yse3qzro","28","女性","","","","","",""
"517.8999999761581","<p style=""font-size: 48px""><<><<</p>","j","flanker_main","html-keyboard-response","60","86886","0.0-3.0-4.0-2.5","1","8gz0yse3qzro","28","女性","","","","不一致","j","1"
"null","","null","","html-keyboard-response","61","87402","0.0-3.0-4.0-0.6","1","8gz0yse3qzro","28","女性","","","","","",""
"null","<p style=""font-size: 48px"">+</p>","null","","html-keyboard-response","62","87917","0.0-3.0-4.0-1.6","1","8gz0yse3qzro","28","女性","","","","","",""
"385.69999998807907","<p style=""font-size: 48px"">-->--</p>","j","flanker_main","html-keyboard-response","63","88304","0.0-3.0-4.0-2.6","1","8gz0yse3qzro","28","女性","","","","中性","j","1"
"null","","null","","html-keyboard-response","64","88817","0.0-3.0-4.0-0.7","1","8gz0yse3qzro","28","女性","","","","","",""
"null","<p style=""font-size: 48px"">+</p>","null","","html-keyboard-response","65","89330","0.0-3.0-4.0-1.7","1","8gz0yse3qzro","28","女性","","","","","",""
"446.60000002384186","<p style=""font-size: 48px"">-->--</p>","j","flanker_main","html-keyboard-response","66","89778","0.0-3.0-4.0-2.7","1","8gz0yse3qzro","28","女性","","","","中性","j","1"
"null","","null","","html-keyboard-response","67","90281","0.0-3.0-4.0-0.8","1","8gz0yse3qzro","28","女性","","","","","",""
"null","<p style=""font-size: 48px"">+</p>","null","","html-keyboard-response","68","90794","0.0-3.0-4.0-1.8","1","8gz0yse3qzro","28","女性","","","","","",""
"447","<p style=""font-size: 48px"">--<--</p>","f","flanker_main","html-keyboard-response","69","91242","0.0-3.0-4.0-2.8","1","8gz0yse3qzro","28","女性","","","","中性","f","1"
"null","","null","","html-keyboard-response","70","91761","0.0-3.0-4.0-0.9","1","8gz0yse3qzro","28","女性","","","","","",""
"null","<p style=""font-size: 48px"">+</p>","null","","html-keyboard-response","71","92264","0.0-3.0-4.0-1.9","1","8gz0yse3qzro","28","女性","","","","","",""
"549","<p style=""font-size: 48px""><<><<</p>","j","flanker_main","html-keyboard-response","72","92813","0.0-3.0-4.0-2.9","1","8gz0yse3qzro","28","女性","","","","不一致","j","1"
"null","","null","","html-keyboard-response","73","93318","0.0-3.0-4.0-0.10","1","8gz0yse3qzro","28","女性","","","","","",""
"null","<p style=""font-size: 48px"">+</p>","null","","html-keyboard-response","74","93819","0.0-3.0-4.0-1.10","1","8gz0yse3qzro","28","女性","","","","","",""
"422.2999999821186","<p style=""font-size: 48px""><<<<<</p>","f","flanker_main","html-keyboard-response","75","94242","0.0-3.0-4.0-2.10","1","8gz0yse3qzro","28","女性","","","","一致","f","1"
"null","","null","","html-keyboard-response","76","94746","0.0-3.0-4.0-0.11","1","8gz0yse3qzro","28","女性","","","","","",""
"null","<p style=""font-size: 48px"">+</p>","null","","html-keyboard-response","77","95248","0.0-3.0-4.0-1.11","1","8gz0yse3qzro","28","女性","","","","","",""
"388.19999998807907","<p style=""font-size: 48px"">>>>>></p>","j","flanker_main","html-keyboard-response","78","95637","0.0-3.0-4.0-2.11","1","8gz0yse3qzro","28","女性","","","","一致","j","1"
"null","","null","","html-keyboard-response","79","96147","0.0-3.0-4.0-0.12","1","8gz0yse3qzro","28","女性","","","","","",""
"null","<p style=""font-size: 48px"">+</p>","null","","html-keyboard-response","80","96661","0.0-3.0-4.0-1.12","1","8gz0yse3qzro","28","女性","","","","","",""
"412","<p style=""font-size: 48px"">>><>></p>","f","flanker_main","html-keyboard-response","81","97074","0.0-3.0-4.0-2.12","1","8gz0yse3qzro","28","女性","","","","不一致","f","1"
"null","","null","","html-keyboard-response","82","97579","0.0-3.0-4.0-0.13","1","8gz0yse3qzro","28","女性","","","","","",""
"null","<p style=""font-size: 48px"">+</p>","null","","html-keyboard-response","83","98093","0.0-3.0-4.0-1.13","1","8gz0yse3qzro","28","女性","","","","","",""
"398.30000001192093","<p style=""font-size: 48px""><<><<</p>","j","flanker_main","html-keyboard-response","84","98492","0.0-3.0-4.0-2.13","1","8gz0yse3qzro","28","女性","","","","不一致","j","1"
"null","","null","","html-keyboard-response","85","98997","0.0-3.0-4.0-0.14","1","8gz0yse3qzro","28","女性","","","","","",""
"null","<p style=""font-size: 48px"">+</p>","null","","html-keyboard-response","86","99510","0.0-3.0-4.0-1.14","1","8gz0yse3qzro","28","女性","","","","","",""
"398.2999999821186","<p style=""font-size: 48px"">-->--</p>","j","flanker_main","html-keyboard-response","87","99908","0.0-3.0-4.0-2.14","1","8gz0yse3qzro","28","女性","","","","中性","j","1"
"null","","null","","html-keyboard-response","88","100419","0.0-3.0-4.0-0.15","1","8gz0yse3qzro","28","女性","","","","","",""
"null","<p style=""font-size: 48px"">+</p>","null","","html-keyboard-response","89","100929","0.0-3.0-4.0-1.15","1","8gz0yse3qzro","28","女性","","","","","",""
"343.5","<p style=""font-size: 48px"">--<--</p>","f","flanker_main","html-keyboard-response","90","101274","0.0-3.0-4.0-2.15","1","8gz0yse3qzro","28","女性","","","","中性","f","1"
"null","","null","","html-keyboard-response","91","101786","0.0-3.0-4.0-0.16","1","8gz0yse3qzro","28","女性","","","","","",""
"null","<p style=""font-size: 48px"">+</p>","null","","html-keyboard-response","92","102287","0.0-3.0-4.0-1.16","1","8gz0yse3qzro","28","女性","","","","","",""
"355.90000000596046","<p style=""font-size: 48px"">>><>></p>","j","flanker_main","html-keyboard-response","93","102644","0.0-3.0-4.0-2.16","1","8gz0yse3qzro","28","女性","","","","不一致","f","0"
"null","","null","","html-keyboard-response","94","103159","0.0-3.0-4.0-0.17","1","8gz0yse3qzro","28","女性","","","","","",""
"null","<p style=""font-size: 48px"">+</p>","null","","html-keyboard-response","95","103668","0.0-3.0-4.0-1.17","1","8gz0yse3qzro","28","女性","","","","","",""
"503.89999997615814","<p style=""font-size: 48px"">>><>></p>","f","flanker_main","html-keyboard-response","96","104173","0.0-3.0-4.0-2.17","1","8gz0yse3qzro","28","女性","","","","不一致","f","1"
"null","","null","","html-keyboard-response","97","104675","0.0-3.0-4.0-0.18","1","8gz0yse3qzro","28","女性","","","","","",""
"null","<p style=""font-size: 48px"">+</p>","null","","html-keyboard-response","98","105186","0.0-3.0-4.0-1.18","1","8gz0yse3qzro","28","女性","","","","","",""
"421.60000002384186","<p style=""font-size: 48px"">>>>>></p>","j","flanker_main","html-keyboard-response","99","105609","0.0-3.0-4.0-2.18","1","8gz0yse3qzro","28","女性","","","","一致","j","1"
"null","","null","","html-keyboard-response","100","106116","0.0-3.0-4.0-0.19","1","8gz0yse3qzro","28","女性","","","","","",""
"null","<p style=""font-size: 48px"">+</p>","null","","html-keyboard-response","101","106630","0.0-3.0-4.0-1.19","1","8gz0yse3qzro","28","女性","","","","","",""
"369.69999998807907","<p style=""font-size: 48px"">--<--</p>","f","flanker_main","html-keyboard-response","102","107001","0.0-3.0-4.0-2.19","1","8gz0yse3qzro","28","女性","","","","中性","f","1"
"null","","null","","html-keyboard-response","103","107512","0.0-3.0-4.0-0.20","1","8gz0yse3qzro","28","女性","","","","","",""
"null","<p style=""font-size: 48px"">+</p>","null","","html-keyboard-response","104","108023","0.0-3.0-4.0-1.20","1","8gz0yse3qzro","28","女性","","","","","",""
"428.80000001192093","<p style=""font-size: 48px""><<><<</p>","j","flanker_main","html-keyboard-response","105","108453","0.0-3.0-4.0-2.20","1","8gz0yse3qzro","28","女性","","","","不一致","j","1"
"null","","null","","html-keyboard-response","106","108962","0.0-3.0-4.0-0.21","1","8gz0yse3qzro","28","女性","","","","","",""
"null","<p style=""font-size: 48px"">+</p>","null","","html-keyboard-response","107","109475","0.0-3.0-4.0-1.21","1","8gz0yse3qzro","28","女性","","","","","",""
"382.69999998807907","<p style=""font-size: 48px""><<<<<</p>","f","flanker_main","html-keyboard-response","108","109858","0.0-3.0-4.0-2.21","1","8gz0yse3qzro","28","女性","","","","一致","f","1"
"null","","null","","html-keyboard-response","109","110373","0.0-3.0-4.0-0.22","1","8gz0yse3qzro","28","女性","","","","","",""
"null","<p style=""font-size: 48px"">+</p>","null","","html-keyboard-response","110","110882","0.0-3.0-4.0-1.22","1","8gz0yse3qzro","28","女性","","","","","",""
"384.80000001192093","<p style=""font-size: 48px"">--<--</p>","f","flanker_main","html-keyboard-response","111","111268","0.0-3.0-4.0-2.22","1","8gz0yse3qzro","28","女性","","","","中性","f","1"
"null","","null","","html-keyboard-response","112","111783","0.0-3.0-4.0-0.23","1","8gz0yse3qzro","28","女性","","","","","",""
"null","<p style=""font-size: 48px"">+</p>","null","","html-keyboard-response","113","112296","0.0-3.0-4.0-1.23","1","8gz0yse3qzro","28","女性","","","","","",""
"393.60000002384186","<p style=""font-size: 48px"">>>>>></p>","j","flanker_main","html-keyboard-response","114","112690","0.0-3.0-4.0-2.23","1","8gz0yse3qzro","28","女性","","","","一致","j","1"
"null","","null","","html-keyboard-response","115","113194","0.0-3.0-4.0-0.24","1","8gz0yse3qzro","28","女性","","","","","",""
"null","<p style=""font-size: 48px"">+</p>","null","","html-keyboard-response","116","113706","0.0-3.0-4.0-1.24","1","8gz0yse3qzro","28","女性","","","","","",""
"386","<p style=""font-size: 48px"">>>>>></p>","j","flanker_main","html-keyboard-response","117","114093","0.0-3.0-4.0-2.24","1","8gz0yse3qzro","28","女性","","","","一致","j","1"
"null","","null","","html-keyboard-response","118","114606","0.0-3.0-4.0-0.25","1","8gz0yse3qzro","28","女性","","","","","",""
"null","<p style=""font-size: 48px"">+</p>","null","","html-keyboard-response","119","115118","0.0-3.0-4.0-1.25","1","8gz0yse3qzro","28","女性","","","","","",""
"423","<p style=""font-size: 48px""><<<<<</p>","f","flanker_main","html-keyboard-response","120","115542","0.0-3.0-4.0-2.25","1","8gz0yse3qzro","28","女性","","","","一致","f","1"
"null","","null","","html-keyboard-response","121","116046","0.0-3.0-4.0-0.26","1","8gz0yse3qzro","28","女性","","","","","",""
"null","<p style=""font-size: 48px"">+</p>","null","","html-keyboard-response","122","116558","0.0-3.0-4.0-1.26","1","8gz0yse3qzro","28","女性","","","","","",""
"427.59999999403954","<p style=""font-size: 48px"">--<--</p>","f","flanker_main","html-keyboard-response","123","116986","0.0-3.0-4.0-2.26","1","8gz0yse3qzro","28","女性","","","","中性","f","1"
"null","","null","","html-keyboard-response","124","117490","0.0-3.0-4.0-0.27","1","8gz0yse3qzro","28","女性","","","","","",""
"null","<p style=""font-size: 48px"">+</p>","null","","html-keyboard-response","125","118000","0.0-3.0-4.0-1.27","1","8gz0yse3qzro","28","女性","","","","","",""
"414.09999999403954","<p style=""font-size: 48px"">--<--</p>","f","flanker_main","html-keyboard-response","126","118415","0.0-3.0-4.0-2.27","1","8gz0yse3qzro","28","女性","","","","中性","f","1"
"null","","null","","html-keyboard-response","127","118917","0.0-3.0-4.0-0.28","1","8gz0yse3qzro","28","女性","","","","","",""
"null","<p style=""font-size: 48px"">+</p>","null","","html-keyboard-response","128","119430","0.0-3.0-4.0-1.28","1","8gz0yse3qzro","28","女性","","","","","",""
"453.40000000596046","<p style=""font-size: 48px"">>><>></p>","f","flanker_main","html-keyboard-response","129","119884","0.0-3.0-4.0-2.28","1","8gz0yse3qzro","28","女性","","","","不一致","f","1"
"null","","null","","html-keyboard-response","130","120390","0.0-3.0-4.0-0.29","1","8gz0yse3qzro","28","女性","","","","","",""
"null","<p style=""font-size: 48px"">+</p>","null","","html-keyboard-response","131","120904","0.0-3.0-4.0-1.29","1","8gz0yse3qzro","28","女性","","","","","",""
"413.80000001192093","<p style=""font-size: 48px""><<><<</p>","j","flanker_main","html-keyboard-response","132","121319","0.0-3.0-4.0-2.29","1","8gz0yse3qzro","28","女性","","","","不一致","j","1"
"null","","null","","html-keyboard-response","133","121821","0.0-3.0-4.0-0.30","1","8gz0yse3qzro","28","女性","","","","","",""
"null","<p style=""font-size: 48px"">+</p>","null","","html-keyboard-response","134","122330","0.0-3.0-4.0-1.30","1","8gz0yse3qzro","28","女性","","","","","",""
"467.5","<p style=""font-size: 48px"">>><>></p>","f","flanker_main","html-keyboard-response","135","122798","0.0-3.0-4.0-2.30","1","8gz0yse3qzro","28","女性","","","","不一致","f","1"
"null","","null","","html-keyboard-response","136","123305","0.0-3.0-4.0-0.31","1","8gz0yse3qzro","28","女性","","","","","",""
"null","<p style=""font-size: 48px"">+</p>","null","","html-keyboard-response","137","123814","0.0-3.0-4.0-1.31","1","8gz0yse3qzro","28","女性","","","","","",""
"485.69999998807907","<p style=""font-size: 48px"">>><>></p>","f","flanker_main","html-keyboard-response","138","124301","0.0-3.0-4.0-2.31","1","8gz0yse3qzro","28","女性","","","","不一致","f","1"
"null","","null","","html-keyboard-response","139","124805","0.0-3.0-4.0-0.32","1","8gz0yse3qzro","28","女性","","","","","",""
"null","<p style=""font-size: 48px"">+</p>","null","","html-keyboard-response","140","125306","0.0-3.0-4.0-1.32","1","8gz0yse3qzro","28","女性","","","","","",""
"360.09999999403954","<p style=""font-size: 48px""><<<<<</p>","f","flanker_main","html-keyboard-response","141","125667","0.0-3.0-4.0-2.32","1","8gz0yse3qzro","28","女性","","","","一致","f","1"
"null","","null","","html-keyboard-response","142","126172","0.0-3.0-4.0-0.33","1","8gz0yse3qzro","28","女性","","","","","",""
"null","<p style=""font-size: 48px"">+</p>","null","","html-keyboard-response","143","126685","0.0-3.0-4.0-1.33","1","8gz0yse3qzro","28","女性","","","","","",""
"372.19999998807907","<p style=""font-size: 48px""><<<<<</p>","f","flanker_main","html-keyboard-response","144","127058","0.0-3.0-4.0-2.33","1","8gz0yse3qzro","28","女性","","","","一致","f","1"
"null","","null","","html-keyboard-response","145","127569","0.0-3.0-4.0-0.34","1","8gz0yse3qzro","28","女性","","","","","",""
"null","<p style=""font-size: 48px"">+</p>","null","","html-keyboard-response","146","128078","0.0-3.0-4.0-1.34","1","8gz0yse3qzro","28","女性","","","","","",""
"443.7999999821186","<p style=""font-size: 48px"">-->--</p>","j","flanker_main","html-keyboard-response","147","128523","0.0-3.0-4.0-2.34","1","8gz0yse3qzro","28","女性","","","","中性","j","1"
"null","","null","","html-keyboard-response","148","129038","0.0-3.0-4.0-0.35","1","8gz0yse3qzro","28","女性","","","","","",""
"null","<p style=""font-size: 48px"">+</p>","null","","html-keyboard-response","149","129551","0.0-3.0-4.0-1.35","1","8gz0yse3qzro","28","女性","","","","","",""
"360.5","<p style=""font-size: 48px"">--<--</p>","f","flanker_main","html-keyboard-response","150","129912","0.0-3.0-4.0-2.35","1","8gz0yse3qzro","28","女性","","","","中性","f","1"
"null","","null","","html-keyboard-response","151","130420","0.0-3.0-4.0-0.36","1","8gz0yse3qzro","28","女性","","","","","",""
"null","<p style=""font-size: 48px"">+</p>","null","","html-keyboard-response","152","130933","0.0-3.0-4.0-1.36","1","8gz0yse3qzro","28","女性","","","","","",""
"380.5","<p style=""font-size: 48px"">--<--</p>","f","flanker_main","html-keyboard-response","153","131315","0.0-3.0-4.0-2.36","1","8gz0yse3qzro","28","女性","","","","中性","f","1"
"null","","null","","html-keyboard-response","154","131816","0.0-3.0-4.0-0.37","1","8gz0yse3qzro","28","女性","","","","","",""
"null","<p style=""font-size: 48px"">+</p>","null","","html-keyboard-response","155","132325","0.0-3.0-4.0-1.37","1","8gz0yse3qzro","28","女性","","","","","",""
"424.5","<p style=""font-size: 48px"">-->--</p>","j","flanker_main","html-keyboard-response","156","132750","0.0-3.0-4.0-2.37","1","8gz0yse3qzro","28","女性","","","","中性","j","1"
"null","","null","","html-keyboard-response","157","133257","0.0-3.0-4.0-0.38","1","8gz0yse3qzro","28","女性","","","","","",""
"null","<p style=""font-size: 48px"">+</p>","null","","html-keyboard-response","158","133772","0.0-3.0-4.0-1.38","1","8gz0yse3qzro","28","女性","","","","","",""
"419","<p style=""font-size: 48px"">>>>>></p>","j","flanker_main","html-keyboard-response","159","134192","0.0-3.0-4.0-2.38","1","8gz0yse3qzro","28","女性","","","","一致","j","1"
"null","","null","","html-keyboard-response","160","134702","0.0-3.0-4.0-0.39","1","8gz0yse3qzro","28","女性","","","","","",""
"null","<p style=""font-size: 48px"">+</p>","null","","html-keyboard-response","161","135213","0.0-3.0-4.0-1.39","1","8gz0yse3qzro","28","女性","","","","","",""
"341.59999999403954","<p style=""font-size: 48px""><<<<<</p>","f","flanker_main","html-keyboard-response","162","135555","0.0-3.0-4.0-2.39","1","8gz0yse3qzro","28","女性","","","","一致","f","1"
"null","","null","","html-keyboard-response","163","136066","0.0-3.0-4.0-0.40","1","8gz0yse3qzro","28","女性","","","","","",""
"null","<p style=""font-size: 48px"">+</p>","null","","html-keyboard-response","164","136568","0.0-3.0-4.0-1.40","1","8gz0yse3qzro","28","女性","","","","","",""
"461","<p style=""font-size: 48px"">>><>></p>","f","flanker_main","html-keyboard-response","165","137030","0.0-3.0-4.0-2.40","1","8gz0yse3qzro","28","女性","","","","不一致","f","1"
"null","","null","","html-keyboard-response","166","137536","0.0-3.0-4.0-0.41","1","8gz0yse3qzro","28","女性","","","","","",""
"null","<p style=""font-size: 48px"">+</p>","null","","html-keyboard-response","167","138051","0.0-3.0-4.0-1.41","1","8gz0yse3qzro","28","女性","","","","","",""
"401.80000001192093","<p style=""font-size: 48px"">-->--</p>","j","flanker_main","html-keyboard-response","168","138454","0.0-3.0-4.0-2.41","1","8gz0yse3qzro","28","女性","","","","中性","j","1"
"null","","null","","html-keyboard-response","169","138955","0.0-3.0-4.0-0.42","1","8gz0yse3qzro","28","女性","","","","","",""
"null","<p style=""font-size: 48px"">+</p>","null","","html-keyboard-response","170","139470","0.0-3.0-4.0-1.42","1","8gz0yse3qzro","28","女性","","","","","",""
"379.2000000178814","<p style=""font-size: 48px"">>>>>></p>","j","flanker_main","html-keyboard-response","171","139851","0.0-3.0-4.0-2.42","1","8gz0yse3qzro","28","女性","","","","一致","j","1"
"null","","null","","html-keyboard-response","172","140365","0.0-3.0-4.0-0.43","1","8gz0yse3qzro","28","女性","","","","","",""
"null","<p style=""font-size: 48px"">+</p>","null","","html-keyboard-response","173","140877","0.0-3.0-4.0-1.43","1","8gz0yse3qzro","28","女性","","","","","",""
"425.2000000178814","<p style=""font-size: 48px"">>>>>></p>","j","flanker_main","html-keyboard-response","174","141303","0.0-3.0-4.0-2.43","1","8gz0yse3qzro","28","女性","","","","一致","j","1"
"null","","null","","html-keyboard-response","175","141808","0.0-3.0-4.0-0.44","1","8gz0yse3qzro","28","女性","","","","","",""
"null","<p style=""font-size: 48px"">+</p>","null","","html-keyboard-response","176","142321","0.0-3.0-4.0-1.44","1","8gz0yse3qzro","28","女性","","","","","",""
"394.30000001192093","<p style=""font-size: 48px""><<><<</p>","f","flanker_main","html-keyboard-response","177","142717","0.0-3.0-4.0-2.44","1","8gz0yse3qzro","28","女性","","","","不一致","j","0"
"null","","null","","html-keyboard-response","178","143223","0.0-3.0-4.0-0.45","1","8gz0yse3qzro","28","女性","","","","","",""
"null","<p style=""font-size: 48px"">+</p>","null","","html-keyboard-response","179","143734","0.0-3.0-4.0-1.45","1","8gz0yse3qzro","28","女性","","","","","",""
"456.2999999821186","<p style=""font-size: 48px""><<><<</p>","j","flanker_main","html-keyboard-response","180","144191","0.0-3.0-4.0-2.45","1","8gz0yse3qzro","28","女性","","","","不一致","j","1"
"null","","null","","html-keyboard-response","181","144699","0.0-3.0-4.0-0.46","1","8gz0yse3qzro","28","女性","","","","","",""
"null","<p style=""font-size: 48px"">+</p>","null","","html-keyboard-response","182","145201","0.0-3.0-4.0-1.46","1","8gz0yse3qzro","28","女性","","","","","",""
"350.2999999821186","<p style=""font-size: 48px"">>>>>></p>","j","flanker_main","html-keyboard-response","183","145552","0.0-3.0-4.0-2.46","1","8gz0yse3qzro","28","女性","","","","一致","j","1"
"null","","null","","html-keyboard-response","184","146055","0.0-3.0-4.0-0.47","1","8gz0yse3qzro","28","女性","","","","","",""
"null","<p style=""font-size: 48px"">+</p>","null","","html-keyboard-response","185","146557","0.0-3.0-4.0-1.47","1","8gz0yse3qzro","28","女性","","","","","",""
"340.59999999403954","<p style=""font-size: 48px"">>>>>></p>","j","flanker_main","html-keyboard-response","186","146899","0.0-3.0-4.0-2.47","1","8gz0yse3qzro","28","女性","","","","一致","j","1"
"null","","null","","html-keyboard-response","187","147401","0.0-3.0-4.0-0.48","1","8gz0yse3qzro","28","女性","","","","","",""
"null","<p style=""font-size: 48px"">+</p>","null","","html-keyboard-response","188","147913","0.0-3.0-4.0-1.48","1","8gz0yse3qzro","28","女性","","","","","",""
"426.2999999821186","<p style=""font-size: 48px"">>><>></p>","f","flanker_main","html-keyboard-response","189","148340","0.0-3.0-4.0-2.48","1","8gz0yse3qzro","28","女性","","","","不一致","f","1"
"null","","null","","html-keyboard-response","190","148846","0.0-3.0-4.0-0.49","1","8gz0yse3qzro","28","女性","","","","","",""
"null","<p style=""font-size: 48px"">+</p>","null","","html-keyboard-response","191","149361","0.0-3.0-4.0-1.49","1","8gz0yse3qzro","28","女性","","","","","",""
"447","<p style=""font-size: 48px"">--<--</p>","f","flanker_main","html-keyboard-response","192","149809","0.0-3.0-4.0-2.49","1","8gz0yse3qzro","28","女性","","","","中性","f","1"
"null","","null","","html-keyboard-response","193","150310","0.0-3.0-4.0-0.50","1","8gz0yse3qzro","28","女性","","","","","",""
"null","<p style=""font-size: 48px"">+</p>","null","","html-keyboard-response","194","150822","0.0-3.0-4.0-1.50","1","8gz0yse3qzro","28","女性","","","","","",""
"410","<p style=""font-size: 48px"">-->--</p>","j","flanker_main","html-keyboard-response","195","151233","0.0-3.0-4.0-2.50","1","8gz0yse3qzro","28","女性","","","","中性","j","1"
"null","","null","","html-keyboard-response","196","151747","0.0-3.0-4.0-0.51","1","8gz0yse3qzro","28","女性","","","","","",""
"null","<p style=""font-size: 48px"">+</p>","null","","html-keyboard-response","197","152258","0.0-3.0-4.0-1.51","1","8gz0yse3qzro","28","女性","","","","","",""
"443.19999998807907","<p style=""font-size: 48px"">-->--</p>","j","flanker_main","html-keyboard-response","198","152702","0.0-3.0-4.0-2.51","1","8gz0yse3qzro","28","女性","","","","中性","j","1"
"null","","null","","html-keyboard-response","199","153211","0.0-3.0-4.0-0.52","1","8gz0yse3qzro","28","女性","","","","","",""
"null","<p style=""font-size: 48px"">+</p>","null","","html-keyboard-response","200","153713","0.0-3.0-4.0-1.52","1","8gz0yse3qzro","28","女性","","","","","",""
"383.09999999403954","<p style=""font-size: 48px"">-->--</p>","j","flanker_main","html-keyboard-response","201","154097","0.0-3.0-4.0-2.52","1","8gz0yse3qzro","28","女性","","","","中性","j","1"
"null","","null","","html-keyboard-response","202","154611","0.0-3.0-4.0-0.53","1","8gz0yse3qzro","28","女性","","","","","",""
"null","<p style=""font-size: 48px"">+</p>","null","","html-keyboard-response","203","155126","0.0-3.0-4.0-1.53","1","8gz0yse3qzro","28","女性","","","","","",""
"478.90000000596046","<p style=""font-size: 48px"">>><>></p>","f","flanker_main","html-keyboard-response","204","155605","0.0-3.0-4.0-2.53","1","8gz0yse3qzro","28","女性","","","","不一致","f","1"
"null","","null","","html-keyboard-response","205","156108","0.0-3.0-4.0-0.54","1","8gz0yse3qzro","28","女性","","","","","",""
"null","<p style=""font-size: 48px"">+</p>","null","","html-keyboard-response","206","156620","0.0-3.0-4.0-1.54","1","8gz0yse3qzro","28","女性","","","","","",""
"397.2000000178814","<p style=""font-size: 48px""><<<<<</p>","f","flanker_main","html-keyboard-response","207","157018","0.0-3.0-4.0-2.54","1","8gz0yse3qzro","28","女性","","","","一致","f","1"
"null","","null","","html-keyboard-response","208","157522","0.0-3.0-4.0-0.55","1","8gz0yse3qzro","28","女性","","","","","",""
"null","<p style=""font-size: 48px"">+</p>","null","","html-keyboard-response","209","158034","0.0-3.0-4.0-1.55","1","8gz0yse3qzro","28","女性","","","","","",""
"403.40000000596046","<p style=""font-size: 48px""><<<<<</p>","f","flanker_main","html-keyboard-response","210","158439","0.0-3.0-4.0-2.55","1","8gz0yse3qzro","28","女性","","","","一致","f","1"
"null","","null","","html-keyboard-response","211","158942","0.0-3.0-4.0-0.56","1","8gz0yse3qzro","28","女性","","","","","",""
"null","<p style=""font-size: 48px"">+</p>","null","","html-keyboard-response","212","159454","0.0-3.0-4.0-1.56","1","8gz0yse3qzro","28","女性","","","","","",""
"356.2000000178814","<p style=""font-size: 48px"">>>>>></p>","j","flanker_main","html-keyboard-response","213","159811","0.0-3.0-4.0-2.56","1","8gz0yse3qzro","28","女性","","","","一致","j","1"
"null","","null","","html-keyboard-response","214","160322","0.0-3.0-4.0-0.57","1","8gz0yse3qzro","28","女性","","","","","",""
"null","<p style=""font-size: 48px"">+</p>","null","","html-keyboard-response","215","160837","0.0-3.0-4.0-1.57","1","8gz0yse3qzro","28","女性","","","","","",""
"391.69999998807907","<p style=""font-size: 48px""><<<<<</p>","f","flanker_main","html-keyboard-response","216","161230","0.0-3.0-4.0-2.57","1","8gz0yse3qzro","28","女性","","","","一致","f","1"
"null","","null","","html-keyboard-response","217","161740","0.0-3.0-4.0-0.58","1","8gz0yse3qzro","28","女性","","","","","",""
"null","<p style=""font-size: 48px"">+</p>","null","","html-keyboard-response","218","162253","0.0-3.0-4.0-1.58","1","8gz0yse3qzro","28","女性","","","","","",""
"374.80000001192093","<p style=""font-size: 48px"">--<--</p>","f","flanker_main","html-keyboard-response","219","162629","0.0-3.0-4.0-2.58","1","8gz0yse3qzro","28","女性","","","","中性","f","1"
"null","","null","","html-keyboard-response","220","163139","0.0-3.0-4.0-0.59","1","8gz0yse3qzro","28","女性","","","","","",""
"null","<p style=""font-size: 48px"">+</p>","null","","html-keyboard-response","221","163655","0.0-3.0-4.0-1.59","1","8gz0yse3qzro","28","女性","","","","","",""
"457.5","<p style=""font-size: 48px""><<><<</p>","j","flanker_main","html-keyboard-response","222","164113","0.0-3.0-4.0-2.59","1","8gz0yse3qzro","28","女性","","","","不一致","j","1"
"","","","","call-function","223","164114","0.0-3.0-5.0","1","8gz0yse3qzro","28","女性","","","","","",""
"5014.200000017881","次のページには，ふだんのあなたの様子について尋ねる文章が表示されます。それぞれについて，どの程度あてはまるかを<br>「あてはまらない」「どちらかと言えばあてはまらない」「どちらかと言えばあてはまる」「あてはまる」<br>の4つの選択肢から1つ選んで回答してください。<br><br>準備ができたらスペースキーを押して回答を開始してください。"," ","instruction","html-keyboard-response","224","169129","0.0-4.0","1","8gz0yse3qzro","28","女性","","","","","",""
"83662.40000000596","","{""Q15"":3,""Q4"":3,""Q18"":2,""Q19"":2,""Q8"":3,""Q6"":3,""Q12"":2,""Q13"":2,""Q2"":3,""Q10"":3,""Q11"":2,""Q9"":2,""Q5"":2,""Q3"":3,""Q16"":2,""Q1"":0,""Q14"":3,""Q20"":2,""Q17"":3,""Q7"":3}","bis_bas","survey-likert","225","252798","0.0-5.0","1","8gz0yse3qzro","28","女性","","[14,3,17,18,7,5,11,12,1,9,10,8,4,2,15,0,13,19,16,6]","","","",""
