"rt","stimulus","response","task","trial_type","trial_index","time_elapsed","internal_node_id","CB","tempID","age","sex","success","question_order","value","condition","key","correct"
"10970.600000023842","これから実験をおこないます（10分程度）。<br>実験の最初に年齢と性別の入力が求められますが，回答に関係なくランダムなデータが保存されます。<br>授業のデモということで個人の特定可能性が高いことを考慮し，このような措置をとりました。<br>フランカー課題と質問紙はご自身の遂行成績・点数が保存されます。<br>収集したデータは分析のデモに使用します。個人が特定されることはないですし，<br>リアルなデータの方が練習にもなるはずなので，これらの課題は真剣に取り組んでもらえれば幸いです。"," ","instruction","html-keyboard-response","0","10975","0.0-0.0","2","hlty0k10us46","19","女性","","","","","",""
"","","","instruction","fullscreen","1","13491","0.0-1.0","2","hlty0k10us46","19","女性","true","","","","",""
"8188.9000000059605","","{""age"":19}","par_info","survey-text","2","21690","0.0-2.0-0.0","2","hlty0k10us46","19","女性","","","","","",""
"1021.3000000119209","","{""sex"":""女性""}","par_info","survey-multi-choice","3","22714","0.0-2.0-1.0","2","hlty0k10us46","19","女性","","[0]","","","",""
"2228.300000011921","次のページには，ふだんのあなたの様子について尋ねる文章が表示されます。それぞれについて，どの程度あてはまるかを<br>「あてはまらない」「どちらかと言えばあてはまらない」「どちらかと言えばあてはまる」「あてはまる」<br>の4つの選択肢から1つ選んで回答してください。<br><br>準備ができたらスペースキーを押して回答を開始してください。"," ","instruction","html-keyboard-response","4","24944","0.0-3.0","2","hlty0k10us46","19","女性","","","","","",""
"51264","","{""Q12"":3,""Q14"":0,""Q4"":3,""Q3"":3,""Q19"":2,""Q8"":3,""Q10"":3,""Q18"":0,""Q7"":3,""Q13"":3,""Q5"":2,""Q1"":0,""Q17"":0,""Q16"":3,""Q2"":2,""Q15"":3,""Q11"":2,""Q9"":3,""Q20"":3,""Q6"":3}","bis_bas","survey-likert","5","76216","0.0-4.0","2","hlty0k10us46","19","女性","","[11,13,3,2,18,7,9,17,6,12,4,0,16,15,1,14,10,8,19,5]","","","",""
"","","","","call-function","6","76218","0.0-5.0-0.0","2","hlty0k10us46","19","女性","","","","","",""
"13437.299999982119","これから画面上に５つの矢印（>>>>>など）が表示されます。<br>中央の矢印が左向き（<）なら「f」キーを<br>中央の矢印が右向き（>）なら「j」キーを<br>なるべく早く，正確に押してください<br><br>準備ができたら「f」キーか「j」キーを押して練習を開始してください。","f","instruction","html-keyboard-response","7","89656","0.0-5.0-1.0","2","hlty0k10us46","19","女性","","","","","",""
"null","","null","","html-keyboard-response","8","90157","0.0-5.0-2.0-0.0","2","hlty0k10us46","19","女性","","","","","",""
"null","<p style=""font-size: 48px"">+</p>","null","","html-keyboard-response","9","90660","0.0-5.0-2.0-1.0","2","hlty0k10us46","19","女性","","","","","",""
"1235.0999999940395","<p style=""font-size: 48px"">>>>>></p>","j","flanker_practice","html-keyboard-response","10","91898","0.0-5.0-2.0-2.0","2","hlty0k10us46","19","女性","","","","一致","j","1"
"null","","null","","html-keyboard-response","11","92400","0.0-5.0-2.0-0.1","2","hlty0k10us46","19","女性","","","","","",""
"null","<p style=""font-size: 48px"">+</p>","null","","html-keyboard-response","12","92902","0.0-5.0-2.0-1.1","2","hlty0k10us46","19","女性","","","","","",""
"777","<p style=""font-size: 48px""><<<<<</p>","f","flanker_practice","html-keyboard-response","13","93680","0.0-5.0-2.0-2.1","2","hlty0k10us46","19","女性","","","","一致","f","1"
"null","","null","","html-keyboard-response","14","94181","0.0-5.0-2.0-0.2","2","hlty0k10us46","19","女性","","","","","",""
"null","<p style=""font-size: 48px"">+</p>","null","","html-keyboard-response","15","94684","0.0-5.0-2.0-1.2","2","hlty0k10us46","19","女性","","","","","",""
"618.3000000119209","<p style=""font-size: 48px"">--<--</p>","f","flanker_practice","html-keyboard-response","16","95305","0.0-5.0-2.0-2.2","2","hlty0k10us46","19","女性","","","","中性","f","1"
"null","","null","","html-keyboard-response","17","95808","0.0-5.0-2.0-0.3","2","hlty0k10us46","19","女性","","","","","",""
"null","<p style=""font-size: 48px"">+</p>","null","","html-keyboard-response","18","96310","0.0-5.0-2.0-1.3","2","hlty0k10us46","19","女性","","","","","",""
"410.40000000596046","<p style=""font-size: 48px"">-->--</p>","j","flanker_practice","html-keyboard-response","19","96723","0.0-5.0-2.0-2.3","2","hlty0k10us46","19","女性","","","","中性","j","1"
"null","","null","","html-keyboard-response","20","97226","0.0-5.0-2.0-0.4","2","hlty0k10us46","19","女性","","","","","",""
"null","<p style=""font-size: 48px"">+</p>","null","","html-keyboard-response","21","97728","0.0-5.0-2.0-1.4","2","hlty0k10us46","19","女性","","","","","",""
"815.4000000059605","<p style=""font-size: 48px"">>><>></p>","f","flanker_practice","html-keyboard-response","22","98545","0.0-5.0-2.0-2.4","2","hlty0k10us46","19","女性","","","","不一致","f","1"
"null","","null","","html-keyboard-response","23","99046","0.0-5.0-2.0-0.5","2","hlty0k10us46","19","女性","","","","","",""
"null","<p style=""font-size: 48px"">+</p>","null","","html-keyboard-response","24","99550","0.0-5.0-2.0-1.5","2","hlty0k10us46","19","女性","","","","","",""
"471.7000000178814","<p style=""font-size: 48px"">>>>>></p>","j","flanker_practice","html-keyboard-response","25","100023","0.0-5.0-2.0-2.5","2","hlty0k10us46","19","女性","","","","一致","j","1"
"null","","null","","html-keyboard-response","26","100524","0.0-5.0-2.0-0.6","2","hlty0k10us46","19","女性","","","","","",""
"null","<p style=""font-size: 48px"">+</p>","null","","html-keyboard-response","27","101030","0.0-5.0-2.0-1.6","2","hlty0k10us46","19","女性","","","","","",""
"447.90000000596046","<p style=""font-size: 48px"">-->--</p>","j","flanker_practice","html-keyboard-response","28","101479","0.0-5.0-2.0-2.6","2","hlty0k10us46","19","女性","","","","中性","j","1"
"null","","null","","html-keyboard-response","29","101981","0.0-5.0-2.0-0.7","2","hlty0k10us46","19","女性","","","","","",""
"null","<p style=""font-size: 48px"">+</p>","null","","html-keyboard-response","30","102484","0.0-5.0-2.0-1.7","2","hlty0k10us46","19","女性","","","","","",""
"350.19999998807907","<p style=""font-size: 48px""><<<<<</p>","f","flanker_practice","html-keyboard-response","31","102836","0.0-5.0-2.0-2.7","2","hlty0k10us46","19","女性","","","","一致","f","1"
"null","","null","","html-keyboard-response","32","103337","0.0-5.0-2.0-0.8","2","hlty0k10us46","19","女性","","","","","",""
"null","<p style=""font-size: 48px"">+</p>","null","","html-keyboard-response","33","103839","0.0-5.0-2.0-1.8","2","hlty0k10us46","19","女性","","","","","",""
"420.40000000596046","<p style=""font-size: 48px""><<><<</p>","j","flanker_practice","html-keyboard-response","34","104261","0.0-5.0-2.0-2.8","2","hlty0k10us46","19","女性","","","","不一致","j","1"
"null","","null","","html-keyboard-response","35","104763","0.0-5.0-2.0-0.9","2","hlty0k10us46","19","女性","","","","","",""
"null","<p style=""font-size: 48px"">+</p>","null","","html-keyboard-response","36","105265","0.0-5.0-2.0-1.9","2","hlty0k10us46","19","女性","","","","","",""
"299.60000002384186","<p style=""font-size: 48px"">--<--</p>","f","flanker_practice","html-keyboard-response","37","105566","0.0-5.0-2.0-2.9","2","hlty0k10us46","19","女性","","","","中性","f","1"
"null","","null","","html-keyboard-response","38","106069","0.0-5.0-2.0-0.10","2","hlty0k10us46","19","女性","","","","","",""
"null","<p style=""font-size: 48px"">+</p>","null","","html-keyboard-response","39","106580","0.0-5.0-2.0-1.10","2","hlty0k10us46","19","女性","","","","","",""
"487.19999998807907","<p style=""font-size: 48px"">>><>></p>","f","flanker_practice","html-keyboard-response","40","107068","0.0-5.0-2.0-2.10","2","hlty0k10us46","19","女性","","","","不一致","f","1"
"null","","null","","html-keyboard-response","41","107571","0.0-5.0-2.0-0.11","2","hlty0k10us46","19","女性","","","","","",""
"null","<p style=""font-size: 48px"">+</p>","null","","html-keyboard-response","42","108072","0.0-5.0-2.0-1.11","2","hlty0k10us46","19","女性","","","","","",""
"455","<p style=""font-size: 48px""><<><<</p>","j","flanker_practice","html-keyboard-response","43","108528","0.0-5.0-2.0-2.11","2","hlty0k10us46","19","女性","","","","不一致","j","1"
"1021.0999999940395","それでは本番を行います。<br>準備ができたら「f」キーか「j」キーを押して課題を開始してください。","f","instruction","html-keyboard-response","44","109550","0.0-5.0-3.0","2","hlty0k10us46","19","女性","","","","","",""
"null","","null","","html-keyboard-response","45","110051","0.0-5.0-4.0-0.0","2","hlty0k10us46","19","女性","","","","","",""
"null","<p style=""font-size: 48px"">+</p>","null","","html-keyboard-response","46","110552","0.0-5.0-4.0-1.0","2","hlty0k10us46","19","女性","","","","","",""
"537.3999999761581","<p style=""font-size: 48px"">>><>></p>","f","flanker_main","html-keyboard-response","47","111090","0.0-5.0-4.0-2.0","2","hlty0k10us46","19","女性","","","","不一致","f","1"
"null","","null","","html-keyboard-response","48","111591","0.0-5.0-4.0-0.1","2","hlty0k10us46","19","女性","","","","","",""
"null","<p style=""font-size: 48px"">+</p>","null","","html-keyboard-response","49","112093","0.0-5.0-4.0-1.1","2","hlty0k10us46","19","女性","","","","","",""
"295.39999997615814","<p style=""font-size: 48px"">>>>>></p>","j","flanker_main","html-keyboard-response","50","112390","0.0-5.0-4.0-2.1","2","hlty0k10us46","19","女性","","","","一致","j","1"
"null","","null","","html-keyboard-response","51","112891","0.0-5.0-4.0-0.2","2","hlty0k10us46","19","女性","","","","","",""
"null","<p style=""font-size: 48px"">+</p>","null","","html-keyboard-response","52","113393","0.0-5.0-4.0-1.2","2","hlty0k10us46","19","女性","","","","","",""
"376.80000001192093","<p style=""font-size: 48px"">-->--</p>","j","flanker_main","html-keyboard-response","53","113770","0.0-5.0-4.0-2.2","2","hlty0k10us46","19","女性","","","","中性","j","1"
"null","","null","","html-keyboard-response","54","114271","0.0-5.0-4.0-0.3","2","hlty0k10us46","19","女性","","","","","",""
"null","<p style=""font-size: 48px"">+</p>","null","","html-keyboard-response","55","114773","0.0-5.0-4.0-1.3","2","hlty0k10us46","19","女性","","","","","",""
"321.90000000596046","<p style=""font-size: 48px"">>>>>></p>","j","flanker_main","html-keyboard-response","56","115097","0.0-5.0-4.0-2.3","2","hlty0k10us46","19","女性","","","","一致","j","1"
"null","","null","","html-keyboard-response","57","115598","0.0-5.0-4.0-0.4","2","hlty0k10us46","19","女性","","","","","",""
"null","<p style=""font-size: 48px"">+</p>","null","","html-keyboard-response","58","116100","0.0-5.0-4.0-1.4","2","hlty0k10us46","19","女性","","","","","",""
"377.5","<p style=""font-size: 48px""><<<<<</p>","f","flanker_main","html-keyboard-response","59","116480","0.0-5.0-4.0-2.4","2","hlty0k10us46","19","女性","","","","一致","f","1"
"null","","null","","html-keyboard-response","60","116983","0.0-5.0-4.0-0.5","2","hlty0k10us46","19","女性","","","","","",""
"null","<p style=""font-size: 48px"">+</p>","null","","html-keyboard-response","61","117490","0.0-5.0-4.0-1.5","2","hlty0k10us46","19","女性","","","","","",""
"323.7999999821186","<p style=""font-size: 48px"">>><>></p>","j","flanker_main","html-keyboard-response","62","117815","0.0-5.0-4.0-2.5","2","hlty0k10us46","19","女性","","","","不一致","f","0"
"null","","null","","html-keyboard-response","63","118316","0.0-5.0-4.0-0.6","2","hlty0k10us46","19","女性","","","","","",""
"null","<p style=""font-size: 48px"">+</p>","null","","html-keyboard-response","64","118818","0.0-5.0-4.0-1.6","2","hlty0k10us46","19","女性","","","","","",""
"444.09999999403954","<p style=""font-size: 48px"">>><>></p>","f","flanker_main","html-keyboard-response","65","119265","0.0-5.0-4.0-2.6","2","hlty0k10us46","19","女性","","","","不一致","f","1"
"null","","null","","html-keyboard-response","66","119766","0.0-5.0-4.0-0.7","2","hlty0k10us46","19","女性","","","","","",""
"null","<p style=""font-size: 48px"">+</p>","null","","html-keyboard-response","67","120270","0.0-5.0-4.0-1.7","2","hlty0k10us46","19","女性","","","","","",""
"426.09999999403954","<p style=""font-size: 48px"">>><>></p>","j","flanker_main","html-keyboard-response","68","120698","0.0-5.0-4.0-2.7","2","hlty0k10us46","19","女性","","","","不一致","f","0"
"null","","null","","html-keyboard-response","69","121202","0.0-5.0-4.0-0.8","2","hlty0k10us46","19","女性","","","","","",""
"null","<p style=""font-size: 48px"">+</p>","null","","html-keyboard-response","70","121712","0.0-5.0-4.0-1.8","2","hlty0k10us46","19","女性","","","","","",""
"404.09999999403954","<p style=""font-size: 48px"">--<--</p>","f","flanker_main","html-keyboard-response","71","122119","0.0-5.0-4.0-2.8","2","hlty0k10us46","19","女性","","","","中性","f","1"
"null","","null","","html-keyboard-response","72","122621","0.0-5.0-4.0-0.9","2","hlty0k10us46","19","女性","","","","","",""
"null","<p style=""font-size: 48px"">+</p>","null","","html-keyboard-response","73","123124","0.0-5.0-4.0-1.9","2","hlty0k10us46","19","女性","","","","","",""
"491.30000001192093","<p style=""font-size: 48px""><<><<</p>","j","flanker_main","html-keyboard-response","74","123618","0.0-5.0-4.0-2.9","2","hlty0k10us46","19","女性","","","","不一致","j","1"
"null","","null","","html-keyboard-response","75","124121","0.0-5.0-4.0-0.10","2","hlty0k10us46","19","女性","","","","","",""
"null","<p style=""font-size: 48px"">+</p>","null","","html-keyboard-response","76","124636","0.0-5.0-4.0-1.10","2","hlty0k10us46","19","女性","","","","","",""
"414.2000000178814","<p style=""font-size: 48px"">>><>></p>","f","flanker_main","html-keyboard-response","77","125053","0.0-5.0-4.0-2.10","2","hlty0k10us46","19","女性","","","","不一致","f","1"
"null","","null","","html-keyboard-response","78","125556","0.0-5.0-4.0-0.11","2","hlty0k10us46","19","女性","","","","","",""
"null","<p style=""font-size: 48px"">+</p>","null","","html-keyboard-response","79","126059","0.0-5.0-4.0-1.11","2","hlty0k10us46","19","女性","","","","","",""
"388.60000002384186","<p style=""font-size: 48px""><<<<<</p>","f","flanker_main","html-keyboard-response","80","126450","0.0-5.0-4.0-2.11","2","hlty0k10us46","19","女性","","","","一致","f","1"
"null","","null","","html-keyboard-response","81","126952","0.0-5.0-4.0-0.12","2","hlty0k10us46","19","女性","","","","","",""
"null","<p style=""font-size: 48px"">+</p>","null","","html-keyboard-response","82","127456","0.0-5.0-4.0-1.12","2","hlty0k10us46","19","女性","","","","","",""
"430.30000001192093","<p style=""font-size: 48px"">-->--</p>","j","flanker_main","html-keyboard-response","83","127889","0.0-5.0-4.0-2.12","2","hlty0k10us46","19","女性","","","","中性","j","1"
"null","","null","","html-keyboard-response","84","128391","0.0-5.0-4.0-0.13","2","hlty0k10us46","19","女性","","","","","",""
"null","<p style=""font-size: 48px"">+</p>","null","","html-keyboard-response","85","128894","0.0-5.0-4.0-1.13","2","hlty0k10us46","19","女性","","","","","",""
"444.90000000596046","<p style=""font-size: 48px"">--<--</p>","f","flanker_main","html-keyboard-response","86","129341","0.0-5.0-4.0-2.13","2","hlty0k10us46","19","女性","","","","中性","f","1"
"null","","null","","html-keyboard-response","87","129844","0.0-5.0-4.0-0.14","2","hlty0k10us46","19","女性","","","","","",""
"null","<p style=""font-size: 48px"">+</p>","null","","html-keyboard-response","88","130346","0.0-5.0-4.0-1.14","2","hlty0k10us46","19","女性","","","","","",""
"333.90000000596046","<p style=""font-size: 48px"">--<--</p>","f","flanker_main","html-keyboard-response","89","130682","0.0-5.0-4.0-2.14","2","hlty0k10us46","19","女性","","","","中性","f","1"
"null","","null","","html-keyboard-response","90","131185","0.0-5.0-4.0-0.15","2","hlty0k10us46","19","女性","","","","","",""
"null","<p style=""font-size: 48px"">+</p>","null","","html-keyboard-response","91","131688","0.0-5.0-4.0-1.15","2","hlty0k10us46","19","女性","","","","","",""
"414.40000000596046","<p style=""font-size: 48px"">>><>></p>","j","flanker_main","html-keyboard-response","92","132105","0.0-5.0-4.0-2.15","2","hlty0k10us46","19","女性","","","","不一致","f","0"
"null","","null","","html-keyboard-response","93","132607","0.0-5.0-4.0-0.16","2","hlty0k10us46","19","女性","","","","","",""
"null","<p style=""font-size: 48px"">+</p>","null","","html-keyboard-response","94","133110","0.0-5.0-4.0-1.16","2","hlty0k10us46","19","女性","","","","","",""
"451","<p style=""font-size: 48px"">-->--</p>","j","flanker_main","html-keyboard-response","95","133563","0.0-5.0-4.0-2.16","2","hlty0k10us46","19","女性","","","","中性","j","1"
"null","","null","","html-keyboard-response","96","134067","0.0-5.0-4.0-0.17","2","hlty0k10us46","19","女性","","","","","",""
"null","<p style=""font-size: 48px"">+</p>","null","","html-keyboard-response","97","134570","0.0-5.0-4.0-1.17","2","hlty0k10us46","19","女性","","","","","",""
"374.5","<p style=""font-size: 48px"">-->--</p>","j","flanker_main","html-keyboard-response","98","134947","0.0-5.0-4.0-2.17","2","hlty0k10us46","19","女性","","","","中性","j","1"
"null","","null","","html-keyboard-response","99","135465","0.0-5.0-4.0-0.18","2","hlty0k10us46","19","女性","","","","","",""
"null","<p style=""font-size: 48px"">+</p>","null","","html-keyboard-response","100","135968","0.0-5.0-4.0-1.18","2","hlty0k10us46","19","女性","","","","","",""
"342.10000002384186","<p style=""font-size: 48px""><<<<<</p>","f","flanker_main","html-keyboard-response","101","136314","0.0-5.0-4.0-2.18","2","hlty0k10us46","19","女性","","","","一致","f","1"
"null","","null","","html-keyboard-response","102","136817","0.0-5.0-4.0-0.19","2","hlty0k10us46","19","女性","","","","","",""
"null","<p style=""font-size: 48px"">+</p>","null","","html-keyboard-response","103","137320","0.0-5.0-4.0-1.19","2","hlty0k10us46","19","女性","","","","","",""
"341.30000001192093","<p style=""font-size: 48px"">--<--</p>","f","flanker_main","html-keyboard-response","104","137664","0.0-5.0-4.0-2.19","2","hlty0k10us46","19","女性","","","","中性","f","1"
"null","","null","","html-keyboard-response","105","138166","0.0-5.0-4.0-0.20","2","hlty0k10us46","19","女性","","","","","",""
"null","<p style=""font-size: 48px"">+</p>","null","","html-keyboard-response","106","138670","0.0-5.0-4.0-1.20","2","hlty0k10us46","19","女性","","","","","",""
"345.59999999403954","<p style=""font-size: 48px"">--<--</p>","f","flanker_main","html-keyboard-response","107","139017","0.0-5.0-4.0-2.20","2","hlty0k10us46","19","女性","","","","中性","f","1"
"null","","null","","html-keyboard-response","108","139520","0.0-5.0-4.0-0.21","2","hlty0k10us46","19","女性","","","","","",""
"null","<p style=""font-size: 48px"">+</p>","null","","html-keyboard-response","109","140023","0.0-5.0-4.0-1.21","2","hlty0k10us46","19","女性","","","","","",""
"377.09999999403954","<p style=""font-size: 48px"">--<--</p>","f","flanker_main","html-keyboard-response","110","140402","0.0-5.0-4.0-2.21","2","hlty0k10us46","19","女性","","","","中性","f","1"
"null","","null","","html-keyboard-response","111","140904","0.0-5.0-4.0-0.22","2","hlty0k10us46","19","女性","","","","","",""
"null","<p style=""font-size: 48px"">+</p>","null","","html-keyboard-response","112","141407","0.0-5.0-4.0-1.22","2","hlty0k10us46","19","女性","","","","","",""
"570.8000000119209","<p style=""font-size: 48px"">-->--</p>","j","flanker_main","html-keyboard-response","113","141981","0.0-5.0-4.0-2.22","2","hlty0k10us46","19","女性","","","","中性","j","1"
"null","","null","","html-keyboard-response","114","142484","0.0-5.0-4.0-0.23","2","hlty0k10us46","19","女性","","","","","",""
"null","<p style=""font-size: 48px"">+</p>","null","","html-keyboard-response","115","142987","0.0-5.0-4.0-1.23","2","hlty0k10us46","19","女性","","","","","",""
"404.5","<p style=""font-size: 48px""><<><<</p>","f","flanker_main","html-keyboard-response","116","143397","0.0-5.0-4.0-2.23","2","hlty0k10us46","19","女性","","","","不一致","j","0"
"null","","null","","html-keyboard-response","117","143900","0.0-5.0-4.0-0.24","2","hlty0k10us46","19","女性","","","","","",""
"null","<p style=""font-size: 48px"">+</p>","null","","html-keyboard-response","118","144402","0.0-5.0-4.0-1.24","2","hlty0k10us46","19","女性","","","","","",""
"493.90000000596046","<p style=""font-size: 48px""><<><<</p>","j","flanker_main","html-keyboard-response","119","144899","0.0-5.0-4.0-2.24","2","hlty0k10us46","19","女性","","","","不一致","j","1"
"null","","null","","html-keyboard-response","120","145402","0.0-5.0-4.0-0.25","2","hlty0k10us46","19","女性","","","","","",""
"null","<p style=""font-size: 48px"">+</p>","null","","html-keyboard-response","121","145905","0.0-5.0-4.0-1.25","2","hlty0k10us46","19","女性","","","","","",""
"353.2000000178814","<p style=""font-size: 48px"">-->--</p>","j","flanker_main","html-keyboard-response","122","146262","0.0-5.0-4.0-2.25","2","hlty0k10us46","19","女性","","","","中性","j","1"
"null","","null","","html-keyboard-response","123","146765","0.0-5.0-4.0-0.26","2","hlty0k10us46","19","女性","","","","","",""
"null","<p style=""font-size: 48px"">+</p>","null","","html-keyboard-response","124","147269","0.0-5.0-4.0-1.26","2","hlty0k10us46","19","女性","","","","","",""
"410.39999997615814","<p style=""font-size: 48px"">>><>></p>","f","flanker_main","html-keyboard-response","125","147682","0.0-5.0-4.0-2.26","2","hlty0k10us46","19","女性","","","","不一致","f","1"
"null","","null","","html-keyboard-response","126","148185","0.0-5.0-4.0-0.27","2","hlty0k10us46","19","女性","","","","","",""
"null","<p style=""font-size: 48px"">+</p>","null","","html-keyboard-response","127","148689","0.0-5.0-4.0-1.27","2","hlty0k10us46","19","女性","","","","","",""
"438.60000002384186","<p style=""font-size: 48px""><<><<</p>","j","flanker_main","html-keyboard-response","128","149130","0.0-5.0-4.0-2.27","2","hlty0k10us46","19","女性","","","","不一致","j","1"
"null","","null","","html-keyboard-response","129","149632","0.0-5.0-4.0-0.28","2","hlty0k10us46","19","女性","","","","","",""
"null","<p style=""font-size: 48px"">+</p>","null","","html-keyboard-response","130","150135","0.0-5.0-4.0-1.28","2","hlty0k10us46","19","女性","","","","","",""
"402.40000000596046","<p style=""font-size: 48px"">>><>></p>","f","flanker_main","html-keyboard-response","131","150541","0.0-5.0-4.0-2.28","2","hlty0k10us46","19","女性","","","","不一致","f","1"
"null","","null","","html-keyboard-response","132","151045","0.0-5.0-4.0-0.29","2","hlty0k10us46","19","女性","","","","","",""
"null","<p style=""font-size: 48px"">+</p>","null","","html-keyboard-response","133","151553","0.0-5.0-4.0-1.29","2","hlty0k10us46","19","女性","","","","","",""
"441.80000001192093","<p style=""font-size: 48px""><<><<</p>","j","flanker_main","html-keyboard-response","134","151998","0.0-5.0-4.0-2.29","2","hlty0k10us46","19","女性","","","","不一致","j","1"
"null","","null","","html-keyboard-response","135","152501","0.0-5.0-4.0-0.30","2","hlty0k10us46","19","女性","","","","","",""
"null","<p style=""font-size: 48px"">+</p>","null","","html-keyboard-response","136","153003","0.0-5.0-4.0-1.30","2","hlty0k10us46","19","女性","","","","","",""
"398.2999999821186","<p style=""font-size: 48px"">--<--</p>","f","flanker_main","html-keyboard-response","137","153405","0.0-5.0-4.0-2.30","2","hlty0k10us46","19","女性","","","","中性","f","1"
"null","","null","","html-keyboard-response","138","153918","0.0-5.0-4.0-0.31","2","hlty0k10us46","19","女性","","","","","",""
"null","<p style=""font-size: 48px"">+</p>","null","","html-keyboard-response","139","154421","0.0-5.0-4.0-1.31","2","hlty0k10us46","19","女性","","","","","",""
"348.7000000178814","<p style=""font-size: 48px"">--<--</p>","f","flanker_main","html-keyboard-response","140","154772","0.0-5.0-4.0-2.31","2","hlty0k10us46","19","女性","","","","中性","f","1"
"null","","null","","html-keyboard-response","141","155274","0.0-5.0-4.0-0.32","2","hlty0k10us46","19","女性","","","","","",""
"null","<p style=""font-size: 48px"">+</p>","null","","html-keyboard-response","142","155778","0.0-5.0-4.0-1.32","2","hlty0k10us46","19","女性","","","","","",""
"331.19999998807907","<p style=""font-size: 48px""><<<<<</p>","f","flanker_main","html-keyboard-response","143","156111","0.0-5.0-4.0-2.32","2","hlty0k10us46","19","女性","","","","一致","f","1"
"null","","null","","html-keyboard-response","144","156612","0.0-5.0-4.0-0.33","2","hlty0k10us46","19","女性","","","","","",""
"null","<p style=""font-size: 48px"">+</p>","null","","html-keyboard-response","145","157116","0.0-5.0-4.0-1.33","2","hlty0k10us46","19","女性","","","","","",""
"419.59999999403954","<p style=""font-size: 48px""><<<<<</p>","f","flanker_main","html-keyboard-response","146","157538","0.0-5.0-4.0-2.33","2","hlty0k10us46","19","女性","","","","一致","f","1"
"null","","null","","html-keyboard-response","147","158041","0.0-5.0-4.0-0.34","2","hlty0k10us46","19","女性","","","","","",""
"null","<p style=""font-size: 48px"">+</p>","null","","html-keyboard-response","148","158546","0.0-5.0-4.0-1.34","2","hlty0k10us46","19","女性","","","","","",""
"369.69999998807907","<p style=""font-size: 48px""><<<<<</p>","f","flanker_main","html-keyboard-response","149","158918","0.0-5.0-4.0-2.34","2","hlty0k10us46","19","女性","","","","一致","f","1"
"null","","null","","html-keyboard-response","150","159421","0.0-5.0-4.0-0.35","2","hlty0k10us46","19","女性","","","","","",""
"null","<p style=""font-size: 48px"">+</p>","null","","html-keyboard-response","151","159924","0.0-5.0-4.0-1.35","2","hlty0k10us46","19","女性","","","","","",""
"470.19999998807907","<p style=""font-size: 48px""><<><<</p>","j","flanker_main","html-keyboard-response","152","160397","0.0-5.0-4.0-2.35","2","hlty0k10us46","19","女性","","","","不一致","j","1"
"null","","null","","html-keyboard-response","153","160900","0.0-5.0-4.0-0.36","2","hlty0k10us46","19","女性","","","","","",""
"null","<p style=""font-size: 48px"">+</p>","null","","html-keyboard-response","154","161402","0.0-5.0-4.0-1.36","2","hlty0k10us46","19","女性","","","","","",""
"382.59999999403954","<p style=""font-size: 48px"">>>>>></p>","j","flanker_main","html-keyboard-response","155","161788","0.0-5.0-4.0-2.36","2","hlty0k10us46","19","女性","","","","一致","j","1"
"null","","null","","html-keyboard-response","156","162291","0.0-5.0-4.0-0.37","2","hlty0k10us46","19","女性","","","","","",""
"null","<p style=""font-size: 48px"">+</p>","null","","html-keyboard-response","157","162795","0.0-5.0-4.0-1.37","2","hlty0k10us46","19","女性","","","","","",""
"333.2999999821186","<p style=""font-size: 48px"">>>>>></p>","j","flanker_main","html-keyboard-response","158","163131","0.0-5.0-4.0-2.37","2","hlty0k10us46","19","女性","","","","一致","j","1"
"null","","null","","html-keyboard-response","159","163634","0.0-5.0-4.0-0.38","2","hlty0k10us46","19","女性","","","","","",""
"null","<p style=""font-size: 48px"">+</p>","null","","html-keyboard-response","160","164137","0.0-5.0-4.0-1.38","2","hlty0k10us46","19","女性","","","","","",""
"341.30000001192093","<p style=""font-size: 48px"">>>>>></p>","j","flanker_main","html-keyboard-response","161","164482","0.0-5.0-4.0-2.38","2","hlty0k10us46","19","女性","","","","一致","j","1"
"null","","null","","html-keyboard-response","162","164985","0.0-5.0-4.0-0.39","2","hlty0k10us46","19","女性","","","","","",""
"null","<p style=""font-size: 48px"">+</p>","null","","html-keyboard-response","163","165488","0.0-5.0-4.0-1.39","2","hlty0k10us46","19","女性","","","","","",""
"326.60000002384186","<p style=""font-size: 48px"">>>>>></p>","j","flanker_main","html-keyboard-response","164","165816","0.0-5.0-4.0-2.39","2","hlty0k10us46","19","女性","","","","一致","j","1"
"null","","null","","html-keyboard-response","165","166317","0.0-5.0-4.0-0.40","2","hlty0k10us46","19","女性","","","","","",""
"null","<p style=""font-size: 48px"">+</p>","null","","html-keyboard-response","166","166820","0.0-5.0-4.0-1.40","2","hlty0k10us46","19","女性","","","","","",""
"307.7999999821186","<p style=""font-size: 48px"">>>>>></p>","j","flanker_main","html-keyboard-response","167","167131","0.0-5.0-4.0-2.40","2","hlty0k10us46","19","女性","","","","一致","j","1"
"null","","null","","html-keyboard-response","168","167633","0.0-5.0-4.0-0.41","2","hlty0k10us46","19","女性","","","","","",""
"null","<p style=""font-size: 48px"">+</p>","null","","html-keyboard-response","169","168135","0.0-5.0-4.0-1.41","2","hlty0k10us46","19","女性","","","","","",""
"442.09999999403954","<p style=""font-size: 48px"">>><>></p>","f","flanker_main","html-keyboard-response","170","168580","0.0-5.0-4.0-2.41","2","hlty0k10us46","19","女性","","","","不一致","f","1"
"null","","null","","html-keyboard-response","171","169083","0.0-5.0-4.0-0.42","2","hlty0k10us46","19","女性","","","","","",""
"null","<p style=""font-size: 48px"">+</p>","null","","html-keyboard-response","172","169587","0.0-5.0-4.0-1.42","2","hlty0k10us46","19","女性","","","","","",""
"371.80000001192093","<p style=""font-size: 48px"">>>>>></p>","j","flanker_main","html-keyboard-response","173","169962","0.0-5.0-4.0-2.42","2","hlty0k10us46","19","女性","","","","一致","j","1"
"null","","null","","html-keyboard-response","174","170465","0.0-5.0-4.0-0.43","2","hlty0k10us46","19","女性","","","","","",""
"null","<p style=""font-size: 48px"">+</p>","null","","html-keyboard-response","175","170967","0.0-5.0-4.0-1.43","2","hlty0k10us46","19","女性","","","","","",""
"294.30000001192093","<p style=""font-size: 48px"">-->--</p>","f","flanker_main","html-keyboard-response","176","171264","0.0-5.0-4.0-2.43","2","hlty0k10us46","19","女性","","","","中性","j","0"
"null","","null","","html-keyboard-response","177","171767","0.0-5.0-4.0-0.44","2","hlty0k10us46","19","女性","","","","","",""
"null","<p style=""font-size: 48px"">+</p>","null","","html-keyboard-response","178","172270","0.0-5.0-4.0-1.44","2","hlty0k10us46","19","女性","","","","","",""
"405.09999999403954","<p style=""font-size: 48px""><<><<</p>","f","flanker_main","html-keyboard-response","179","172678","0.0-5.0-4.0-2.44","2","hlty0k10us46","19","女性","","","","不一致","j","0"
"null","","null","","html-keyboard-response","180","173194","0.0-5.0-4.0-0.45","2","hlty0k10us46","19","女性","","","","","",""
"null","<p style=""font-size: 48px"">+</p>","null","","html-keyboard-response","181","173697","0.0-5.0-4.0-1.45","2","hlty0k10us46","19","女性","","","","","",""
"403.19999998807907","<p style=""font-size: 48px"">-->--</p>","j","flanker_main","html-keyboard-response","182","174104","0.0-5.0-4.0-2.45","2","hlty0k10us46","19","女性","","","","中性","j","1"
"null","","null","","html-keyboard-response","183","174605","0.0-5.0-4.0-0.46","2","hlty0k10us46","19","女性","","","","","",""
"null","<p style=""font-size: 48px"">+</p>","null","","html-keyboard-response","184","175109","0.0-5.0-4.0-1.46","2","hlty0k10us46","19","女性","","","","","",""
"414.2000000178814","<p style=""font-size: 48px"">>><>></p>","f","flanker_main","html-keyboard-response","185","175526","0.0-5.0-4.0-2.46","2","hlty0k10us46","19","女性","","","","不一致","f","1"
"null","","null","","html-keyboard-response","186","176030","0.0-5.0-4.0-0.47","2","hlty0k10us46","19","女性","","","","","",""
"null","<p style=""font-size: 48px"">+</p>","null","","html-keyboard-response","187","176534","0.0-5.0-4.0-1.47","2","hlty0k10us46","19","女性","","","","","",""
"477.89999997615814","<p style=""font-size: 48px"">-->--</p>","j","flanker_main","html-keyboard-response","188","177014","0.0-5.0-4.0-2.47","2","hlty0k10us46","19","女性","","","","中性","j","1"
"null","","null","","html-keyboard-response","189","177518","0.0-5.0-4.0-0.48","2","hlty0k10us46","19","女性","","","","","",""
"null","<p style=""font-size: 48px"">+</p>","null","","html-keyboard-response","190","178021","0.0-5.0-4.0-1.48","2","hlty0k10us46","19","女性","","","","","",""
"354.40000000596046","<p style=""font-size: 48px"">>>>>></p>","j","flanker_main","html-keyboard-response","191","178378","0.0-5.0-4.0-2.48","2","hlty0k10us46","19","女性","","","","一致","j","1"
"null","","null","","html-keyboard-response","192","178881","0.0-5.0-4.0-0.49","2","hlty0k10us46","19","女性","","","","","",""
"null","<p style=""font-size: 48px"">+</p>","null","","html-keyboard-response","193","179386","0.0-5.0-4.0-1.49","2","hlty0k10us46","19","女性","","","","","",""
"326.89999997615814","<p style=""font-size: 48px""><<><<</p>","f","flanker_main","html-keyboard-response","194","179714","0.0-5.0-4.0-2.49","2","hlty0k10us46","19","女性","","","","不一致","j","0"
"null","","null","","html-keyboard-response","195","180217","0.0-5.0-4.0-0.50","2","hlty0k10us46","19","女性","","","","","",""
"null","<p style=""font-size: 48px"">+</p>","null","","html-keyboard-response","196","180720","0.0-5.0-4.0-1.50","2","hlty0k10us46","19","女性","","","","","",""
"376.40000000596046","<p style=""font-size: 48px""><<<<<</p>","f","flanker_main","html-keyboard-response","197","181099","0.0-5.0-4.0-2.50","2","hlty0k10us46","19","女性","","","","一致","f","1"
"null","","null","","html-keyboard-response","198","181602","0.0-5.0-4.0-0.51","2","hlty0k10us46","19","女性","","","","","",""
"null","<p style=""font-size: 48px"">+</p>","null","","html-keyboard-response","199","182106","0.0-5.0-4.0-1.51","2","hlty0k10us46","19","女性","","","","","",""
"411.90000000596046","<p style=""font-size: 48px"">>>>>></p>","j","flanker_main","html-keyboard-response","200","182521","0.0-5.0-4.0-2.51","2","hlty0k10us46","19","女性","","","","一致","j","1"
"null","","null","","html-keyboard-response","201","183023","0.0-5.0-4.0-0.52","2","hlty0k10us46","19","女性","","","","","",""
"null","<p style=""font-size: 48px"">+</p>","null","","html-keyboard-response","202","183527","0.0-5.0-4.0-1.52","2","hlty0k10us46","19","女性","","","","","",""
"387","<p style=""font-size: 48px"">--<--</p>","f","flanker_main","html-keyboard-response","203","183917","0.0-5.0-4.0-2.52","2","hlty0k10us46","19","女性","","","","中性","f","1"
"null","","null","","html-keyboard-response","204","184420","0.0-5.0-4.0-0.53","2","hlty0k10us46","19","女性","","","","","",""
"null","<p style=""font-size: 48px"">+</p>","null","","html-keyboard-response","205","184924","0.0-5.0-4.0-1.53","2","hlty0k10us46","19","女性","","","","","",""
"453.80000001192093","<p style=""font-size: 48px""><<><<</p>","j","flanker_main","html-keyboard-response","206","185381","0.0-5.0-4.0-2.53","2","hlty0k10us46","19","女性","","","","不一致","j","1"
"null","","null","","html-keyboard-response","207","185883","0.0-5.0-4.0-0.54","2","hlty0k10us46","19","女性","","","","","",""
"null","<p style=""font-size: 48px"">+</p>","null","","html-keyboard-response","208","186387","0.0-5.0-4.0-1.54","2","hlty0k10us46","19","女性","","","","","",""
"367.90000000596046","<p style=""font-size: 48px""><<<<<</p>","f","flanker_main","html-keyboard-response","209","186759","0.0-5.0-4.0-2.54","2","hlty0k10us46","19","女性","","","","一致","f","1"
"null","","null","","html-keyboard-response","210","187262","0.0-5.0-4.0-0.55","2","hlty0k10us46","19","女性","","","","","",""
"null","<p style=""font-size: 48px"">+</p>","null","","html-keyboard-response","211","187765","0.0-5.0-4.0-1.55","2","hlty0k10us46","19","女性","","","","","",""
"428.89999997615814","<p style=""font-size: 48px""><<><<</p>","j","flanker_main","html-keyboard-response","212","188198","0.0-5.0-4.0-2.55","2","hlty0k10us46","19","女性","","","","不一致","j","1"
"null","","null","","html-keyboard-response","213","188700","0.0-5.0-4.0-0.56","2","hlty0k10us46","19","女性","","","","","",""
"null","<p style=""font-size: 48px"">+</p>","null","","html-keyboard-response","214","189203","0.0-5.0-4.0-1.56","2","hlty0k10us46","19","女性","","","","","",""
"342.19999998807907","<p style=""font-size: 48px""><<<<<</p>","f","flanker_main","html-keyboard-response","215","189549","0.0-5.0-4.0-2.56","2","hlty0k10us46","19","女性","","","","一致","f","1"
"null","","null","","html-keyboard-response","216","190050","0.0-5.0-4.0-0.57","2","hlty0k10us46","19","女性","","","","","",""
"null","<p style=""font-size: 48px"">+</p>","null","","html-keyboard-response","217","190553","0.0-5.0-4.0-1.57","2","hlty0k10us46","19","女性","","","","","",""
"336.2000000178814","<p style=""font-size: 48px"">-->--</p>","j","flanker_main","html-keyboard-response","218","190892","0.0-5.0-4.0-2.57","2","hlty0k10us46","19","女性","","","","中性","j","1"
"null","","null","","html-keyboard-response","219","191395","0.0-5.0-4.0-0.58","2","hlty0k10us46","19","女性","","","","","",""
"null","<p style=""font-size: 48px"">+</p>","null","","html-keyboard-response","220","191898","0.0-5.0-4.0-1.58","2","hlty0k10us46","19","女性","","","","","",""
"364.2000000178814","<p style=""font-size: 48px""><<<<<</p>","f","flanker_main","html-keyboard-response","221","192265","0.0-5.0-4.0-2.58","2","hlty0k10us46","19","女性","","","","一致","f","1"
"null","","null","","html-keyboard-response","222","192767","0.0-5.0-4.0-0.59","2","hlty0k10us46","19","女性","","","","","",""
"null","<p style=""font-size: 48px"">+</p>","null","","html-keyboard-response","223","193271","0.0-5.0-4.0-1.59","2","hlty0k10us46","19","女性","","","","","",""
"407.2000000178814","<p style=""font-size: 48px"">--<--</p>","f","flanker_main","html-keyboard-response","224","193682","0.0-5.0-4.0-2.59","2","hlty0k10us46","19","女性","","","","中性","f","1"
"","","","","call-function","225","193683","0.0-5.0-5.0","2","hlty0k10us46","19","女性","","","","","",""
