"rt","stimulus","response","task","trial_type","trial_index","time_elapsed","internal_node_id","CB","tempID","age","sex","success","question_order","value","condition","key","correct"
"5183.300000000279","これから実験をおこないます（10分程度）。<br>実験の最初に年齢と性別の入力が求められますが，回答に関係なくランダムなデータが保存されます。<br>授業のデモということで個人の特定可能性が高いことを考慮し，このような措置をとりました。<br>フランカー課題と質問紙はご自身の遂行成績・点数が保存されます。<br>収集したデータは分析のデモに使用します。個人が特定されることはないですし，<br>リアルなデータの方が練習にもなるはずなので，これらの課題は真剣に取り組んでもらえれば幸いです。"," ","instruction","html-keyboard-response","0","5186","0.0-0.0","1","qf7aafx8dmog","18","男性","","","","","",""
"","","","instruction","fullscreen","1","8822","0.0-1.0","1","qf7aafx8dmog","18","男性","true","","","","",""
"3834.399999999907","","{""age"":18}","par_info","survey-text","2","12660","0.0-2.0-0.0","1","qf7aafx8dmog","18","男性","","","","","",""
"2381.1999999997206","","{""sex"":""男性""}","par_info","survey-multi-choice","3","15043","0.0-2.0-1.0","1","qf7aafx8dmog","18","男性","","[0]","","","",""
"","","","","call-function","4","15044","0.0-3.0-0.0","1","qf7aafx8dmog","18","男性","","","","","",""
"15195.69999999972","これから画面上に５つの矢印（>>>>>など）が表示されます。<br>中央の矢印が左向き（<）なら「f」キーを<br>中央の矢印が右向き（>）なら「j」キーを<br>なるべく早く，正確に押してください<br><br>準備ができたら「f」キーか「j」キーを押して練習を開始してください。","f","instruction","html-keyboard-response","5","30241","0.0-3.0-1.0","1","qf7aafx8dmog","18","男性","","","","","",""
"null","","null","","html-keyboard-response","6","30750","0.0-3.0-2.0-0.0","1","qf7aafx8dmog","18","男性","","","","","",""
"null","<p style=""font-size: 48px"">+</p>","null","","html-keyboard-response","7","31263","0.0-3.0-2.0-1.0","1","qf7aafx8dmog","18","男性","","","","","",""
"1275","<p style=""font-size: 48px""><<<<<</p>","f","flanker_practice","html-keyboard-response","8","32544","0.0-3.0-2.0-2.0","1","qf7aafx8dmog","18","男性","","","","一致","f","1"
"null","","null","","html-keyboard-response","9","33061","0.0-3.0-2.0-0.1","1","qf7aafx8dmog","18","男性","","","","","",""
"null","<p style=""font-size: 48px"">+</p>","null","","html-keyboard-response","10","33574","0.0-3.0-2.0-1.1","1","qf7aafx8dmog","18","男性","","","","","",""
"637.5","<p style=""font-size: 48px""><<<<<</p>","f","flanker_practice","html-keyboard-response","11","34214","0.0-3.0-2.0-2.1","1","qf7aafx8dmog","18","男性","","","","一致","f","1"
"null","","null","","html-keyboard-response","12","34724","0.0-3.0-2.0-0.2","1","qf7aafx8dmog","18","男性","","","","","",""
"null","<p style=""font-size: 48px"">+</p>","null","","html-keyboard-response","13","35237","0.0-3.0-2.0-1.2","1","qf7aafx8dmog","18","男性","","","","","",""
"2031","<p style=""font-size: 48px""><<><<</p>","j","flanker_practice","html-keyboard-response","14","37270","0.0-3.0-2.0-2.2","1","qf7aafx8dmog","18","男性","","","","不一致","j","1"
"null","","null","","html-keyboard-response","15","37776","0.0-3.0-2.0-0.3","1","qf7aafx8dmog","18","男性","","","","","",""
"null","<p style=""font-size: 48px"">+</p>","null","","html-keyboard-response","16","38278","0.0-3.0-2.0-1.3","1","qf7aafx8dmog","18","男性","","","","","",""
"851.1000000000931","<p style=""font-size: 48px"">>>>>></p>","j","flanker_practice","html-keyboard-response","17","39132","0.0-3.0-2.0-2.3","1","qf7aafx8dmog","18","男性","","","","一致","j","1"
"null","","null","","html-keyboard-response","18","39641","0.0-3.0-2.0-0.4","1","qf7aafx8dmog","18","男性","","","","","",""
"null","<p style=""font-size: 48px"">+</p>","null","","html-keyboard-response","19","40144","0.0-3.0-2.0-1.4","1","qf7aafx8dmog","18","男性","","","","","",""
"489.5","<p style=""font-size: 48px"">-->--</p>","j","flanker_practice","html-keyboard-response","20","40635","0.0-3.0-2.0-2.4","1","qf7aafx8dmog","18","男性","","","","中性","j","1"
"null","","null","","html-keyboard-response","21","41141","0.0-3.0-2.0-0.5","1","qf7aafx8dmog","18","男性","","","","","",""
"null","<p style=""font-size: 48px"">+</p>","null","","html-keyboard-response","22","41644","0.0-3.0-2.0-1.5","1","qf7aafx8dmog","18","男性","","","","","",""
"809.2999999998137","<p style=""font-size: 48px"">>><>></p>","f","flanker_practice","html-keyboard-response","23","42455","0.0-3.0-2.0-2.5","1","qf7aafx8dmog","18","男性","","","","不一致","f","1"
"null","","null","","html-keyboard-response","24","42959","0.0-3.0-2.0-0.6","1","qf7aafx8dmog","18","男性","","","","","",""
"null","<p style=""font-size: 48px"">+</p>","null","","html-keyboard-response","25","43471","0.0-3.0-2.0-1.6","1","qf7aafx8dmog","18","男性","","","","","",""
"841.1000000000931","<p style=""font-size: 48px""><<><<</p>","j","flanker_practice","html-keyboard-response","26","44314","0.0-3.0-2.0-2.6","1","qf7aafx8dmog","18","男性","","","","不一致","j","1"
"null","","null","","html-keyboard-response","27","44823","0.0-3.0-2.0-0.7","1","qf7aafx8dmog","18","男性","","","","","",""
"null","<p style=""font-size: 48px"">+</p>","null","","html-keyboard-response","28","45326","0.0-3.0-2.0-1.7","1","qf7aafx8dmog","18","男性","","","","","",""
"658.4000000003725","<p style=""font-size: 48px"">--<--</p>","f","flanker_practice","html-keyboard-response","29","45986","0.0-3.0-2.0-2.7","1","qf7aafx8dmog","18","男性","","","","中性","f","1"
"null","","null","","html-keyboard-response","30","46494","0.0-3.0-2.0-0.8","1","qf7aafx8dmog","18","男性","","","","","",""
"null","<p style=""font-size: 48px"">+</p>","null","","html-keyboard-response","31","47010","0.0-3.0-2.0-1.8","1","qf7aafx8dmog","18","男性","","","","","",""
"480.70000000018626","<p style=""font-size: 48px"">--<--</p>","f","flanker_practice","html-keyboard-response","32","47493","0.0-3.0-2.0-2.8","1","qf7aafx8dmog","18","男性","","","","中性","f","1"
"null","","null","","html-keyboard-response","33","47995","0.0-3.0-2.0-0.9","1","qf7aafx8dmog","18","男性","","","","","",""
"null","<p style=""font-size: 48px"">+</p>","null","","html-keyboard-response","34","48498","0.0-3.0-2.0-1.9","1","qf7aafx8dmog","18","男性","","","","","",""
"449.79999999981374","<p style=""font-size: 48px"">>>>>></p>","j","flanker_practice","html-keyboard-response","35","48950","0.0-3.0-2.0-2.9","1","qf7aafx8dmog","18","男性","","","","一致","j","1"
"null","","null","","html-keyboard-response","36","49459","0.0-3.0-2.0-0.10","1","qf7aafx8dmog","18","男性","","","","","",""
"null","<p style=""font-size: 48px"">+</p>","null","","html-keyboard-response","37","49962","0.0-3.0-2.0-1.10","1","qf7aafx8dmog","18","男性","","","","","",""
"553.6999999997206","<p style=""font-size: 48px"">-->--</p>","j","flanker_practice","html-keyboard-response","38","50517","0.0-3.0-2.0-2.10","1","qf7aafx8dmog","18","男性","","","","中性","j","1"
"null","","null","","html-keyboard-response","39","51025","0.0-3.0-2.0-0.11","1","qf7aafx8dmog","18","男性","","","","","",""
"null","<p style=""font-size: 48px"">+</p>","null","","html-keyboard-response","40","51530","0.0-3.0-2.0-1.11","1","qf7aafx8dmog","18","男性","","","","","",""
"857.8999999999069","<p style=""font-size: 48px"">>><>></p>","f","flanker_practice","html-keyboard-response","41","52390","0.0-3.0-2.0-2.11","1","qf7aafx8dmog","18","男性","","","","不一致","f","1"
"2690","それでは本番を行います。<br>準備ができたら「f」キーか「j」キーを押して課題を開始してください。","f","instruction","html-keyboard-response","42","55082","0.0-3.0-3.0","1","qf7aafx8dmog","18","男性","","","","","",""
"null","","null","","html-keyboard-response","43","55596","0.0-3.0-4.0-0.0","1","qf7aafx8dmog","18","男性","","","","","",""
"null","<p style=""font-size: 48px"">+</p>","null","","html-keyboard-response","44","56113","0.0-3.0-4.0-1.0","1","qf7aafx8dmog","18","男性","","","","","",""
"466.5","<p style=""font-size: 48px""><<<<<</p>","f","flanker_main","html-keyboard-response","45","56584","0.0-3.0-4.0-2.0","1","qf7aafx8dmog","18","男性","","","","一致","f","1"
"null","","null","","html-keyboard-response","46","57100","0.0-3.0-4.0-0.1","1","qf7aafx8dmog","18","男性","","","","","",""
"null","<p style=""font-size: 48px"">+</p>","null","","html-keyboard-response","47","57613","0.0-3.0-4.0-1.1","1","qf7aafx8dmog","18","男性","","","","","",""
"570.7000000001863","<p style=""font-size: 48px"">--<--</p>","f","flanker_main","html-keyboard-response","48","58186","0.0-3.0-4.0-2.1","1","qf7aafx8dmog","18","男性","","","","中性","f","1"
"null","","null","","html-keyboard-response","49","58696","0.0-3.0-4.0-0.2","1","qf7aafx8dmog","18","男性","","","","","",""
"null","<p style=""font-size: 48px"">+</p>","null","","html-keyboard-response","50","59213","0.0-3.0-4.0-1.2","1","qf7aafx8dmog","18","男性","","","","","",""
"412.89999999990687","<p style=""font-size: 48px"">>>>>></p>","j","flanker_main","html-keyboard-response","51","59628","0.0-3.0-4.0-2.2","1","qf7aafx8dmog","18","男性","","","","一致","j","1"
"null","","null","","html-keyboard-response","52","60132","0.0-3.0-4.0-0.3","1","qf7aafx8dmog","18","男性","","","","","",""
"null","<p style=""font-size: 48px"">+</p>","null","","html-keyboard-response","53","60635","0.0-3.0-4.0-1.3","1","qf7aafx8dmog","18","男性","","","","","",""
"446.79999999981374","<p style=""font-size: 48px"">>>>>></p>","j","flanker_main","html-keyboard-response","54","61083","0.0-3.0-4.0-2.3","1","qf7aafx8dmog","18","男性","","","","一致","j","1"
"null","","null","","html-keyboard-response","55","61597","0.0-3.0-4.0-0.4","1","qf7aafx8dmog","18","男性","","","","","",""
"null","<p style=""font-size: 48px"">+</p>","null","","html-keyboard-response","56","62100","0.0-3.0-4.0-1.4","1","qf7aafx8dmog","18","男性","","","","","",""
"688.3999999999069","<p style=""font-size: 48px"">>><>></p>","f","flanker_main","html-keyboard-response","57","62790","0.0-3.0-4.0-2.4","1","qf7aafx8dmog","18","男性","","","","不一致","f","1"
"null","","null","","html-keyboard-response","58","63298","0.0-3.0-4.0-0.5","1","qf7aafx8dmog","18","男性","","","","","",""
"null","<p style=""font-size: 48px"">+</p>","null","","html-keyboard-response","59","63815","0.0-3.0-4.0-1.5","1","qf7aafx8dmog","18","男性","","","","","",""
"320.70000000018626","<p style=""font-size: 48px"">-->--</p>","j","flanker_main","html-keyboard-response","60","64137","0.0-3.0-4.0-2.5","1","qf7aafx8dmog","18","男性","","","","中性","j","1"
"null","","null","","html-keyboard-response","61","64648","0.0-3.0-4.0-0.6","1","qf7aafx8dmog","18","男性","","","","","",""
"null","<p style=""font-size: 48px"">+</p>","null","","html-keyboard-response","62","65159","0.0-3.0-4.0-1.6","1","qf7aafx8dmog","18","男性","","","","","",""
"644.8000000002794","<p style=""font-size: 48px"">>><>></p>","f","flanker_main","html-keyboard-response","63","65804","0.0-3.0-4.0-2.6","1","qf7aafx8dmog","18","男性","","","","不一致","f","1"
"null","","null","","html-keyboard-response","64","66320","0.0-3.0-4.0-0.7","1","qf7aafx8dmog","18","男性","","","","","",""
"null","<p style=""font-size: 48px"">+</p>","null","","html-keyboard-response","65","66834","0.0-3.0-4.0-1.7","1","qf7aafx8dmog","18","男性","","","","","",""
"367.40000000037253","<p style=""font-size: 48px"">--<--</p>","j","flanker_main","html-keyboard-response","66","67203","0.0-3.0-4.0-2.7","1","qf7aafx8dmog","18","男性","","","","中性","f","0"
"null","","null","","html-keyboard-response","67","67717","0.0-3.0-4.0-0.8","1","qf7aafx8dmog","18","男性","","","","","",""
"null","<p style=""font-size: 48px"">+</p>","null","","html-keyboard-response","68","68232","0.0-3.0-4.0-1.8","1","qf7aafx8dmog","18","男性","","","","","",""
"752.1000000000931","<p style=""font-size: 48px"">>><>></p>","f","flanker_main","html-keyboard-response","69","68986","0.0-3.0-4.0-2.8","1","qf7aafx8dmog","18","男性","","","","不一致","f","1"
"null","","null","","html-keyboard-response","70","69501","0.0-3.0-4.0-0.9","1","qf7aafx8dmog","18","男性","","","","","",""
"null","<p style=""font-size: 48px"">+</p>","null","","html-keyboard-response","71","70017","0.0-3.0-4.0-1.9","1","qf7aafx8dmog","18","男性","","","","","",""
"518.8000000002794","<p style=""font-size: 48px"">--<--</p>","f","flanker_main","html-keyboard-response","72","70538","0.0-3.0-4.0-2.9","1","qf7aafx8dmog","18","男性","","","","中性","f","1"
"null","","null","","html-keyboard-response","73","71050","0.0-3.0-4.0-0.10","1","qf7aafx8dmog","18","男性","","","","","",""
"null","<p style=""font-size: 48px"">+</p>","null","","html-keyboard-response","74","71567","0.0-3.0-4.0-1.10","1","qf7aafx8dmog","18","男性","","","","","",""
"606.6000000000931","<p style=""font-size: 48px"">>><>></p>","f","flanker_main","html-keyboard-response","75","72176","0.0-3.0-4.0-2.10","1","qf7aafx8dmog","18","男性","","","","不一致","f","1"
"null","","null","","html-keyboard-response","76","72683","0.0-3.0-4.0-0.11","1","qf7aafx8dmog","18","男性","","","","","",""
"null","<p style=""font-size: 48px"">+</p>","null","","html-keyboard-response","77","73197","0.0-3.0-4.0-1.11","1","qf7aafx8dmog","18","男性","","","","","",""
"371.6999999997206","<p style=""font-size: 48px"">--<--</p>","f","flanker_main","html-keyboard-response","78","73570","0.0-3.0-4.0-2.11","1","qf7aafx8dmog","18","男性","","","","中性","f","1"
"null","","null","","html-keyboard-response","79","74083","0.0-3.0-4.0-0.12","1","qf7aafx8dmog","18","男性","","","","","",""
"null","<p style=""font-size: 48px"">+</p>","null","","html-keyboard-response","80","74601","0.0-3.0-4.0-1.12","1","qf7aafx8dmog","18","男性","","","","","",""
"379.10000000009313","<p style=""font-size: 48px"">--<--</p>","f","flanker_main","html-keyboard-response","81","74982","0.0-3.0-4.0-2.12","1","qf7aafx8dmog","18","男性","","","","中性","f","1"
"null","","null","","html-keyboard-response","82","75493","0.0-3.0-4.0-0.13","1","qf7aafx8dmog","18","男性","","","","","",""
"null","<p style=""font-size: 48px"">+</p>","null","","html-keyboard-response","83","76000","0.0-3.0-4.0-1.13","1","qf7aafx8dmog","18","男性","","","","","",""
"439.39999999990687","<p style=""font-size: 48px"">>>>>></p>","j","flanker_main","html-keyboard-response","84","76441","0.0-3.0-4.0-2.13","1","qf7aafx8dmog","18","男性","","","","一致","j","1"
"null","","null","","html-keyboard-response","85","76956","0.0-3.0-4.0-0.14","1","qf7aafx8dmog","18","男性","","","","","",""
"null","<p style=""font-size: 48px"">+</p>","null","","html-keyboard-response","86","77462","0.0-3.0-4.0-1.14","1","qf7aafx8dmog","18","男性","","","","","",""
"362.89999999990687","<p style=""font-size: 48px"">-->--</p>","j","flanker_main","html-keyboard-response","87","77827","0.0-3.0-4.0-2.14","1","qf7aafx8dmog","18","男性","","","","中性","j","1"
"null","","null","","html-keyboard-response","88","78334","0.0-3.0-4.0-0.15","1","qf7aafx8dmog","18","男性","","","","","",""
"null","<p style=""font-size: 48px"">+</p>","null","","html-keyboard-response","89","78851","0.0-3.0-4.0-1.15","1","qf7aafx8dmog","18","男性","","","","","",""
"416.20000000018626","<p style=""font-size: 48px"">>>>>></p>","j","flanker_main","html-keyboard-response","90","79269","0.0-3.0-4.0-2.15","1","qf7aafx8dmog","18","男性","","","","一致","j","1"
"null","","null","","html-keyboard-response","91","79779","0.0-3.0-4.0-0.16","1","qf7aafx8dmog","18","男性","","","","","",""
"null","<p style=""font-size: 48px"">+</p>","null","","html-keyboard-response","92","80288","0.0-3.0-4.0-1.16","1","qf7aafx8dmog","18","男性","","","","","",""
"379.5","<p style=""font-size: 48px"">>>>>></p>","j","flanker_main","html-keyboard-response","93","80671","0.0-3.0-4.0-2.16","1","qf7aafx8dmog","18","男性","","","","一致","j","1"
"null","","null","","html-keyboard-response","94","81185","0.0-3.0-4.0-0.17","1","qf7aafx8dmog","18","男性","","","","","",""
"null","<p style=""font-size: 48px"">+</p>","null","","html-keyboard-response","95","81686","0.0-3.0-4.0-1.17","1","qf7aafx8dmog","18","男性","","","","","",""
"515.5","<p style=""font-size: 48px""><<<<<</p>","f","flanker_main","html-keyboard-response","96","82202","0.0-3.0-4.0-2.17","1","qf7aafx8dmog","18","男性","","","","一致","f","1"
"null","","null","","html-keyboard-response","97","82704","0.0-3.0-4.0-0.18","1","qf7aafx8dmog","18","男性","","","","","",""
"null","<p style=""font-size: 48px"">+</p>","null","","html-keyboard-response","98","83218","0.0-3.0-4.0-1.18","1","qf7aafx8dmog","18","男性","","","","","",""
"495.29999999981374","<p style=""font-size: 48px"">-->--</p>","j","flanker_main","html-keyboard-response","99","83716","0.0-3.0-4.0-2.18","1","qf7aafx8dmog","18","男性","","","","中性","j","1"
"null","","null","","html-keyboard-response","100","84224","0.0-3.0-4.0-0.19","1","qf7aafx8dmog","18","男性","","","","","",""
"null","<p style=""font-size: 48px"">+</p>","null","","html-keyboard-response","101","84737","0.0-3.0-4.0-1.19","1","qf7aafx8dmog","18","男性","","","","","",""
"501.39999999990687","<p style=""font-size: 48px""><<><<</p>","j","flanker_main","html-keyboard-response","102","85240","0.0-3.0-4.0-2.19","1","qf7aafx8dmog","18","男性","","","","不一致","j","1"
"null","","null","","html-keyboard-response","103","85752","0.0-3.0-4.0-0.20","1","qf7aafx8dmog","18","男性","","","","","",""
"null","<p style=""font-size: 48px"">+</p>","null","","html-keyboard-response","104","86254","0.0-3.0-4.0-1.20","1","qf7aafx8dmog","18","男性","","","","","",""
"658.6999999997206","<p style=""font-size: 48px""><<><<</p>","j","flanker_main","html-keyboard-response","105","86914","0.0-3.0-4.0-2.20","1","qf7aafx8dmog","18","男性","","","","不一致","j","1"
"null","","null","","html-keyboard-response","106","87423","0.0-3.0-4.0-0.21","1","qf7aafx8dmog","18","男性","","","","","",""
"null","<p style=""font-size: 48px"">+</p>","null","","html-keyboard-response","107","87936","0.0-3.0-4.0-1.21","1","qf7aafx8dmog","18","男性","","","","","",""
"444.29999999981374","<p style=""font-size: 48px""><<<<<</p>","f","flanker_main","html-keyboard-response","108","88382","0.0-3.0-4.0-2.21","1","qf7aafx8dmog","18","男性","","","","一致","f","1"
"null","","null","","html-keyboard-response","109","88887","0.0-3.0-4.0-0.22","1","qf7aafx8dmog","18","男性","","","","","",""
"null","<p style=""font-size: 48px"">+</p>","null","","html-keyboard-response","110","89395","0.0-3.0-4.0-1.22","1","qf7aafx8dmog","18","男性","","","","","",""
"525.7999999998137","<p style=""font-size: 48px"">>>>>></p>","j","flanker_main","html-keyboard-response","111","89923","0.0-3.0-4.0-2.22","1","qf7aafx8dmog","18","男性","","","","一致","j","1"
"null","","null","","html-keyboard-response","112","90434","0.0-3.0-4.0-0.23","1","qf7aafx8dmog","18","男性","","","","","",""
"null","<p style=""font-size: 48px"">+</p>","null","","html-keyboard-response","113","90950","0.0-3.0-4.0-1.23","1","qf7aafx8dmog","18","男性","","","","","",""
"380.10000000009313","<p style=""font-size: 48px"">-->--</p>","j","flanker_main","html-keyboard-response","114","91331","0.0-3.0-4.0-2.23","1","qf7aafx8dmog","18","男性","","","","中性","j","1"
"null","","null","","html-keyboard-response","115","91838","0.0-3.0-4.0-0.24","1","qf7aafx8dmog","18","男性","","","","","",""
"null","<p style=""font-size: 48px"">+</p>","null","","html-keyboard-response","116","92355","0.0-3.0-4.0-1.24","1","qf7aafx8dmog","18","男性","","","","","",""
"529.7000000001863","<p style=""font-size: 48px"">>><>></p>","f","flanker_main","html-keyboard-response","117","92887","0.0-3.0-4.0-2.24","1","qf7aafx8dmog","18","男性","","","","不一致","f","1"
"null","","null","","html-keyboard-response","118","93389","0.0-3.0-4.0-0.25","1","qf7aafx8dmog","18","男性","","","","","",""
"null","<p style=""font-size: 48px"">+</p>","null","","html-keyboard-response","119","93900","0.0-3.0-4.0-1.25","1","qf7aafx8dmog","18","男性","","","","","",""
"502.5","<p style=""font-size: 48px""><<><<</p>","j","flanker_main","html-keyboard-response","120","94405","0.0-3.0-4.0-2.25","1","qf7aafx8dmog","18","男性","","","","不一致","j","1"
"null","","null","","html-keyboard-response","121","94921","0.0-3.0-4.0-0.26","1","qf7aafx8dmog","18","男性","","","","","",""
"null","<p style=""font-size: 48px"">+</p>","null","","html-keyboard-response","122","95424","0.0-3.0-4.0-1.26","1","qf7aafx8dmog","18","男性","","","","","",""
"438.3000000002794","<p style=""font-size: 48px"">--<--</p>","f","flanker_main","html-keyboard-response","123","95864","0.0-3.0-4.0-2.26","1","qf7aafx8dmog","18","男性","","","","中性","f","1"
"null","","null","","html-keyboard-response","124","96373","0.0-3.0-4.0-0.27","1","qf7aafx8dmog","18","男性","","","","","",""
"null","<p style=""font-size: 48px"">+</p>","null","","html-keyboard-response","125","96891","0.0-3.0-4.0-1.27","1","qf7aafx8dmog","18","男性","","","","","",""
"448.8000000002794","<p style=""font-size: 48px"">--<--</p>","f","flanker_main","html-keyboard-response","126","97341","0.0-3.0-4.0-2.27","1","qf7aafx8dmog","18","男性","","","","中性","f","1"
"null","","null","","html-keyboard-response","127","97856","0.0-3.0-4.0-0.28","1","qf7aafx8dmog","18","男性","","","","","",""
"null","<p style=""font-size: 48px"">+</p>","null","","html-keyboard-response","128","98373","0.0-3.0-4.0-1.28","1","qf7aafx8dmog","18","男性","","","","","",""
"354.89999999990687","<p style=""font-size: 48px""><<><<</p>","j","flanker_main","html-keyboard-response","129","98730","0.0-3.0-4.0-2.28","1","qf7aafx8dmog","18","男性","","","","不一致","j","1"
"null","","null","","html-keyboard-response","130","99239","0.0-3.0-4.0-0.29","1","qf7aafx8dmog","18","男性","","","","","",""
"null","<p style=""font-size: 48px"">+</p>","null","","html-keyboard-response","131","99746","0.0-3.0-4.0-1.29","1","qf7aafx8dmog","18","男性","","","","","",""
"413.10000000009313","<p style=""font-size: 48px""><<><<</p>","j","flanker_main","html-keyboard-response","132","100161","0.0-3.0-4.0-2.29","1","qf7aafx8dmog","18","男性","","","","不一致","j","1"
"null","","null","","html-keyboard-response","133","100673","0.0-3.0-4.0-0.30","1","qf7aafx8dmog","18","男性","","","","","",""
"null","<p style=""font-size: 48px"">+</p>","null","","html-keyboard-response","134","101179","0.0-3.0-4.0-1.30","1","qf7aafx8dmog","18","男性","","","","","",""
"371.60000000009313","<p style=""font-size: 48px""><<><<</p>","j","flanker_main","html-keyboard-response","135","101553","0.0-3.0-4.0-2.30","1","qf7aafx8dmog","18","男性","","","","不一致","j","1"
"null","","null","","html-keyboard-response","136","102057","0.0-3.0-4.0-0.31","1","qf7aafx8dmog","18","男性","","","","","",""
"null","<p style=""font-size: 48px"">+</p>","null","","html-keyboard-response","137","102573","0.0-3.0-4.0-1.31","1","qf7aafx8dmog","18","男性","","","","","",""
"554.5","<p style=""font-size: 48px"">--<--</p>","f","flanker_main","html-keyboard-response","138","103130","0.0-3.0-4.0-2.31","1","qf7aafx8dmog","18","男性","","","","中性","f","1"
"null","","null","","html-keyboard-response","139","103641","0.0-3.0-4.0-0.32","1","qf7aafx8dmog","18","男性","","","","","",""
"null","<p style=""font-size: 48px"">+</p>","null","","html-keyboard-response","140","104155","0.0-3.0-4.0-1.32","1","qf7aafx8dmog","18","男性","","","","","",""
"371.3000000002794","<p style=""font-size: 48px"">>>>>></p>","j","flanker_main","html-keyboard-response","141","104528","0.0-3.0-4.0-2.32","1","qf7aafx8dmog","18","男性","","","","一致","j","1"
"null","","null","","html-keyboard-response","142","105045","0.0-3.0-4.0-0.33","1","qf7aafx8dmog","18","男性","","","","","",""
"null","<p style=""font-size: 48px"">+</p>","null","","html-keyboard-response","143","105558","0.0-3.0-4.0-1.33","1","qf7aafx8dmog","18","男性","","","","","",""
"404.39999999990687","<p style=""font-size: 48px"">--<--</p>","j","flanker_main","html-keyboard-response","144","105963","0.0-3.0-4.0-2.33","1","qf7aafx8dmog","18","男性","","","","中性","f","0"
"null","","null","","html-keyboard-response","145","106475","0.0-3.0-4.0-0.34","1","qf7aafx8dmog","18","男性","","","","","",""
"null","<p style=""font-size: 48px"">+</p>","null","","html-keyboard-response","146","106992","0.0-3.0-4.0-1.34","1","qf7aafx8dmog","18","男性","","","","","",""
"420.39999999990687","<p style=""font-size: 48px"">-->--</p>","j","flanker_main","html-keyboard-response","147","107413","0.0-3.0-4.0-2.34","1","qf7aafx8dmog","18","男性","","","","中性","j","1"
"null","","null","","html-keyboard-response","148","107925","0.0-3.0-4.0-0.35","1","qf7aafx8dmog","18","男性","","","","","",""
"null","<p style=""font-size: 48px"">+</p>","null","","html-keyboard-response","149","108442","0.0-3.0-4.0-1.35","1","qf7aafx8dmog","18","男性","","","","","",""
"409.5","<p style=""font-size: 48px""><<<<<</p>","f","flanker_main","html-keyboard-response","150","108853","0.0-3.0-4.0-2.35","1","qf7aafx8dmog","18","男性","","","","一致","f","1"
"null","","null","","html-keyboard-response","151","109358","0.0-3.0-4.0-0.36","1","qf7aafx8dmog","18","男性","","","","","",""
"null","<p style=""font-size: 48px"">+</p>","null","","html-keyboard-response","152","109874","0.0-3.0-4.0-1.36","1","qf7aafx8dmog","18","男性","","","","","",""
"417.5","<p style=""font-size: 48px"">-->--</p>","j","flanker_main","html-keyboard-response","153","110294","0.0-3.0-4.0-2.36","1","qf7aafx8dmog","18","男性","","","","中性","j","1"
"null","","null","","html-keyboard-response","154","110808","0.0-3.0-4.0-0.37","1","qf7aafx8dmog","18","男性","","","","","",""
"null","<p style=""font-size: 48px"">+</p>","null","","html-keyboard-response","155","111314","0.0-3.0-4.0-1.37","1","qf7aafx8dmog","18","男性","","","","","",""
"390.89999999990687","<p style=""font-size: 48px""><<<<<</p>","f","flanker_main","html-keyboard-response","156","111707","0.0-3.0-4.0-2.37","1","qf7aafx8dmog","18","男性","","","","一致","f","1"
"null","","null","","html-keyboard-response","157","112213","0.0-3.0-4.0-0.38","1","qf7aafx8dmog","18","男性","","","","","",""
"null","<p style=""font-size: 48px"">+</p>","null","","html-keyboard-response","158","112726","0.0-3.0-4.0-1.38","1","qf7aafx8dmog","18","男性","","","","","",""
"420.5","<p style=""font-size: 48px"">>>>>></p>","j","flanker_main","html-keyboard-response","159","113147","0.0-3.0-4.0-2.38","1","qf7aafx8dmog","18","男性","","","","一致","j","1"
"null","","null","","html-keyboard-response","160","113660","0.0-3.0-4.0-0.39","1","qf7aafx8dmog","18","男性","","","","","",""
"null","<p style=""font-size: 48px"">+</p>","null","","html-keyboard-response","161","114165","0.0-3.0-4.0-1.39","1","qf7aafx8dmog","18","男性","","","","","",""
"478.29999999981374","<p style=""font-size: 48px"">-->--</p>","j","flanker_main","html-keyboard-response","162","114645","0.0-3.0-4.0-2.39","1","qf7aafx8dmog","18","男性","","","","中性","j","1"
"null","","null","","html-keyboard-response","163","115148","0.0-3.0-4.0-0.40","1","qf7aafx8dmog","18","男性","","","","","",""
"null","<p style=""font-size: 48px"">+</p>","null","","html-keyboard-response","164","115660","0.0-3.0-4.0-1.40","1","qf7aafx8dmog","18","男性","","","","","",""
"362.20000000018626","<p style=""font-size: 48px""><<<<<</p>","f","flanker_main","html-keyboard-response","165","116024","0.0-3.0-4.0-2.40","1","qf7aafx8dmog","18","男性","","","","一致","f","1"
"null","","null","","html-keyboard-response","166","116528","0.0-3.0-4.0-0.41","1","qf7aafx8dmog","18","男性","","","","","",""
"null","<p style=""font-size: 48px"">+</p>","null","","html-keyboard-response","167","117044","0.0-3.0-4.0-1.41","1","qf7aafx8dmog","18","男性","","","","","",""
"382.59999999962747","<p style=""font-size: 48px"">-->--</p>","j","flanker_main","html-keyboard-response","168","117427","0.0-3.0-4.0-2.41","1","qf7aafx8dmog","18","男性","","","","中性","j","1"
"null","","null","","html-keyboard-response","169","117944","0.0-3.0-4.0-0.42","1","qf7aafx8dmog","18","男性","","","","","",""
"null","<p style=""font-size: 48px"">+</p>","null","","html-keyboard-response","170","118460","0.0-3.0-4.0-1.42","1","qf7aafx8dmog","18","男性","","","","","",""
"479.70000000018626","<p style=""font-size: 48px"">-->--</p>","j","flanker_main","html-keyboard-response","171","118941","0.0-3.0-4.0-2.42","1","qf7aafx8dmog","18","男性","","","","中性","j","1"
"null","","null","","html-keyboard-response","172","119451","0.0-3.0-4.0-0.43","1","qf7aafx8dmog","18","男性","","","","","",""
"null","<p style=""font-size: 48px"">+</p>","null","","html-keyboard-response","173","119961","0.0-3.0-4.0-1.43","1","qf7aafx8dmog","18","男性","","","","","",""
"589.1999999997206","<p style=""font-size: 48px"">>><>></p>","f","flanker_main","html-keyboard-response","174","120552","0.0-3.0-4.0-2.43","1","qf7aafx8dmog","18","男性","","","","不一致","f","1"
"null","","null","","html-keyboard-response","175","121068","0.0-3.0-4.0-0.44","1","qf7aafx8dmog","18","男性","","","","","",""
"null","<p style=""font-size: 48px"">+</p>","null","","html-keyboard-response","176","121578","0.0-3.0-4.0-1.44","1","qf7aafx8dmog","18","男性","","","","","",""
"535.8000000002794","<p style=""font-size: 48px"">>><>></p>","f","flanker_main","html-keyboard-response","177","122115","0.0-3.0-4.0-2.44","1","qf7aafx8dmog","18","男性","","","","不一致","f","1"
"null","","null","","html-keyboard-response","178","122628","0.0-3.0-4.0-0.45","1","qf7aafx8dmog","18","男性","","","","","",""
"null","<p style=""font-size: 48px"">+</p>","null","","html-keyboard-response","179","123132","0.0-3.0-4.0-1.45","1","qf7aafx8dmog","18","男性","","","","","",""
"544.0999999996275","<p style=""font-size: 48px""><<><<</p>","j","flanker_main","html-keyboard-response","180","123679","0.0-3.0-4.0-2.45","1","qf7aafx8dmog","18","男性","","","","不一致","j","1"
"null","","null","","html-keyboard-response","181","124181","0.0-3.0-4.0-0.46","1","qf7aafx8dmog","18","男性","","","","","",""
"null","<p style=""font-size: 48px"">+</p>","null","","html-keyboard-response","182","124685","0.0-3.0-4.0-1.46","1","qf7aafx8dmog","18","男性","","","","","",""
"446.79999999981374","<p style=""font-size: 48px""><<<<<</p>","f","flanker_main","html-keyboard-response","183","125134","0.0-3.0-4.0-2.46","1","qf7aafx8dmog","18","男性","","","","一致","f","1"
"null","","null","","html-keyboard-response","184","125646","0.0-3.0-4.0-0.47","1","qf7aafx8dmog","18","男性","","","","","",""
"null","<p style=""font-size: 48px"">+</p>","null","","html-keyboard-response","185","126162","0.0-3.0-4.0-1.47","1","qf7aafx8dmog","18","男性","","","","","",""
"287.09999999962747","<p style=""font-size: 48px""><<<<<</p>","j","flanker_main","html-keyboard-response","186","126451","0.0-3.0-4.0-2.47","1","qf7aafx8dmog","18","男性","","","","一致","f","0"
"null","","null","","html-keyboard-response","187","126964","0.0-3.0-4.0-0.48","1","qf7aafx8dmog","18","男性","","","","","",""
"null","<p style=""font-size: 48px"">+</p>","null","","html-keyboard-response","188","127469","0.0-3.0-4.0-1.48","1","qf7aafx8dmog","18","男性","","","","","",""
"457.3000000002794","<p style=""font-size: 48px"">--<--</p>","f","flanker_main","html-keyboard-response","189","127927","0.0-3.0-4.0-2.48","1","qf7aafx8dmog","18","男性","","","","中性","f","1"
"null","","null","","html-keyboard-response","190","128431","0.0-3.0-4.0-0.49","1","qf7aafx8dmog","18","男性","","","","","",""
"null","<p style=""font-size: 48px"">+</p>","null","","html-keyboard-response","191","128935","0.0-3.0-4.0-1.49","1","qf7aafx8dmog","18","男性","","","","","",""
"413.10000000009313","<p style=""font-size: 48px""><<><<</p>","j","flanker_main","html-keyboard-response","192","129349","0.0-3.0-4.0-2.49","1","qf7aafx8dmog","18","男性","","","","不一致","j","1"
"null","","null","","html-keyboard-response","193","129864","0.0-3.0-4.0-0.50","1","qf7aafx8dmog","18","男性","","","","","",""
"null","<p style=""font-size: 48px"">+</p>","null","","html-keyboard-response","194","130382","0.0-3.0-4.0-1.50","1","qf7aafx8dmog","18","男性","","","","","",""
"372.90000000037253","<p style=""font-size: 48px""><<><<</p>","j","flanker_main","html-keyboard-response","195","130757","0.0-3.0-4.0-2.50","1","qf7aafx8dmog","18","男性","","","","不一致","j","1"
"null","","null","","html-keyboard-response","196","131265","0.0-3.0-4.0-0.51","1","qf7aafx8dmog","18","男性","","","","","",""
"null","<p style=""font-size: 48px"">+</p>","null","","html-keyboard-response","197","131781","0.0-3.0-4.0-1.51","1","qf7aafx8dmog","18","男性","","","","","",""
"456.70000000018626","<p style=""font-size: 48px"">>><>></p>","f","flanker_main","html-keyboard-response","198","132239","0.0-3.0-4.0-2.51","1","qf7aafx8dmog","18","男性","","","","不一致","f","1"
"null","","null","","html-keyboard-response","199","132747","0.0-3.0-4.0-0.52","1","qf7aafx8dmog","18","男性","","","","","",""
"null","<p style=""font-size: 48px"">+</p>","null","","html-keyboard-response","200","133263","0.0-3.0-4.0-1.52","1","qf7aafx8dmog","18","男性","","","","","",""
"419.20000000018626","<p style=""font-size: 48px"">-->--</p>","j","flanker_main","html-keyboard-response","201","133684","0.0-3.0-4.0-2.52","1","qf7aafx8dmog","18","男性","","","","中性","j","1"
"null","","null","","html-keyboard-response","202","134198","0.0-3.0-4.0-0.53","1","qf7aafx8dmog","18","男性","","","","","",""
"null","<p style=""font-size: 48px"">+</p>","null","","html-keyboard-response","203","134714","0.0-3.0-4.0-1.53","1","qf7aafx8dmog","18","男性","","","","","",""
"531.6000000000931","<p style=""font-size: 48px"">>>>>></p>","j","flanker_main","html-keyboard-response","204","135248","0.0-3.0-4.0-2.53","1","qf7aafx8dmog","18","男性","","","","一致","j","1"
"null","","null","","html-keyboard-response","205","135765","0.0-3.0-4.0-0.54","1","qf7aafx8dmog","18","男性","","","","","",""
"null","<p style=""font-size: 48px"">+</p>","null","","html-keyboard-response","206","136267","0.0-3.0-4.0-1.54","1","qf7aafx8dmog","18","男性","","","","","",""
"399.1999999997206","<p style=""font-size: 48px"">>><>></p>","f","flanker_main","html-keyboard-response","207","136668","0.0-3.0-4.0-2.54","1","qf7aafx8dmog","18","男性","","","","不一致","f","1"
"null","","null","","html-keyboard-response","208","137170","0.0-3.0-4.0-0.55","1","qf7aafx8dmog","18","男性","","","","","",""
"null","<p style=""font-size: 48px"">+</p>","null","","html-keyboard-response","209","137683","0.0-3.0-4.0-1.55","1","qf7aafx8dmog","18","男性","","","","","",""
"441.10000000009313","<p style=""font-size: 48px"">>><>></p>","j","flanker_main","html-keyboard-response","210","138126","0.0-3.0-4.0-2.55","1","qf7aafx8dmog","18","男性","","","","不一致","f","0"
"null","","null","","html-keyboard-response","211","138633","0.0-3.0-4.0-0.56","1","qf7aafx8dmog","18","男性","","","","","",""
"null","<p style=""font-size: 48px"">+</p>","null","","html-keyboard-response","212","139136","0.0-3.0-4.0-1.56","1","qf7aafx8dmog","18","男性","","","","","",""
"649.1000000000931","<p style=""font-size: 48px""><<><<</p>","j","flanker_main","html-keyboard-response","213","139787","0.0-3.0-4.0-2.56","1","qf7aafx8dmog","18","男性","","","","不一致","j","1"
"null","","null","","html-keyboard-response","214","140302","0.0-3.0-4.0-0.57","1","qf7aafx8dmog","18","男性","","","","","",""
"null","<p style=""font-size: 48px"">+</p>","null","","html-keyboard-response","215","140805","0.0-3.0-4.0-1.57","1","qf7aafx8dmog","18","男性","","","","","",""
"420.3000000002794","<p style=""font-size: 48px"">>>>>></p>","j","flanker_main","html-keyboard-response","216","141226","0.0-3.0-4.0-2.57","1","qf7aafx8dmog","18","男性","","","","一致","j","1"
"null","","null","","html-keyboard-response","217","141731","0.0-3.0-4.0-0.58","1","qf7aafx8dmog","18","男性","","","","","",""
"null","<p style=""font-size: 48px"">+</p>","null","","html-keyboard-response","218","142233","0.0-3.0-4.0-1.58","1","qf7aafx8dmog","18","男性","","","","","",""
"403.60000000009313","<p style=""font-size: 48px""><<<<<</p>","f","flanker_main","html-keyboard-response","219","142637","0.0-3.0-4.0-2.58","1","qf7aafx8dmog","18","男性","","","","一致","f","1"
"null","","null","","html-keyboard-response","220","143151","0.0-3.0-4.0-0.59","1","qf7aafx8dmog","18","男性","","","","","",""
"null","<p style=""font-size: 48px"">+</p>","null","","html-keyboard-response","221","143661","0.0-3.0-4.0-1.59","1","qf7aafx8dmog","18","男性","","","","","",""
"455.29999999981374","<p style=""font-size: 48px""><<<<<</p>","f","flanker_main","html-keyboard-response","222","144119","0.0-3.0-4.0-2.59","1","qf7aafx8dmog","18","男性","","","","一致","f","1"
"","","","","call-function","223","144121","0.0-3.0-5.0","1","qf7aafx8dmog","18","男性","","","","","",""
"5103.899999999907","次のページには，ふだんのあなたの様子について尋ねる文章が表示されます。それぞれについて，どの程度あてはまるかを<br>「あてはまらない」「どちらかと言えばあてはまらない」「どちらかと言えばあてはまる」「あてはまる」<br>の4つの選択肢から1つ選んで回答してください。<br><br>準備ができたらスペースキーを押して回答を開始してください。"," ","instruction","html-keyboard-response","224","149226","0.0-4.0","1","qf7aafx8dmog","18","男性","","","","","",""
"77384.09999999963","","{""Q18"":0,""Q10"":3,""Q8"":2,""Q5"":3,""Q13"":3,""Q1"":0,""Q6"":2,""Q16"":3,""Q4"":3,""Q15"":3,""Q11"":3,""Q20"":2,""Q9"":3,""Q19"":3,""Q12"":3,""Q3"":1,""Q7"":3,""Q14"":2,""Q2"":2,""Q17"":2}","bis_bas","survey-likert","225","226617","0.0-5.0","1","qf7aafx8dmog","18","男性","","[17,9,7,4,12,0,5,15,3,14,10,19,8,18,11,2,6,13,1,16]","","","",""
