"rt","stimulus","response","task","trial_type","trial_index","time_elapsed","internal_node_id","CB","tempID","age","sex","success","question_order","value","condition","key","correct"
"1199","これから実験をおこないます（10分程度）。<br>実験の最初に年齢と性別の入力が求められますが，回答に関係なくランダムなデータが保存されます。<br>授業のデモということで個人の特定可能性が高いことを考慮し，このような措置をとりました。<br>フランカー課題と質問紙はご自身の遂行成績・点数が保存されます。<br>収集したデータは分析のデモに使用します。個人が特定されることはないですし，<br>リアルなデータの方が練習にもなるはずなので，これらの課題は真剣に取り組んでもらえれば幸いです。"," ","instruction","html-keyboard-response","0","1206","0.0-0.0","1","r7xd90coxcql","22","女性","","","","","",""
"","","","instruction","fullscreen","1","3535","0.0-1.0","1","r7xd90coxcql","22","女性","true","","","","",""
"2050","","{""age"":22}","par_info","survey-text","2","5594","0.0-2.0-0.0","1","r7xd90coxcql","22","女性","","","","","",""
"1786","","{""sex"":""女性""}","par_info","survey-multi-choice","3","7386","0.0-2.0-1.0","1","r7xd90coxcql","22","女性","","[0]","","","",""
"","","","","call-function","4","7390","0.0-3.0-0.0","1","r7xd90coxcql","22","女性","","","","","",""
"9692","これから画面上に５つの矢印（>>>>>など）が表示されます。<br>中央の矢印が左向き（<）なら「f」キーを<br>中央の矢印が右向き（>）なら「j」キーを<br>なるべく早く，正確に押してください<br><br>準備ができたら「f」キーか「j」キーを押して練習を開始してください。","j","instruction","html-keyboard-response","5","17085","0.0-3.0-1.0","1","r7xd90coxcql","22","女性","","","","","",""
"null","","null","","html-keyboard-response","6","17600","0.0-3.0-2.0-0.0","1","r7xd90coxcql","22","女性","","","","","",""
"null","<p style=""font-size: 48px"">+</p>","null","","html-keyboard-response","7","18109","0.0-3.0-2.0-1.0","1","r7xd90coxcql","22","女性","","","","","",""
"775","<p style=""font-size: 48px"">-->--</p>","f","flanker_practice","html-keyboard-response","8","18888","0.0-3.0-2.0-2.0","1","r7xd90coxcql","22","女性","","","","中性","j","0"
"null","","null","","html-keyboard-response","9","19401","0.0-3.0-2.0-0.1","1","r7xd90coxcql","22","女性","","","","","",""
"null","<p style=""font-size: 48px"">+</p>","null","","html-keyboard-response","10","19904","0.0-3.0-2.0-1.1","1","r7xd90coxcql","22","女性","","","","","",""
"627","<p style=""font-size: 48px""><<><<</p>","f","flanker_practice","html-keyboard-response","11","20533","0.0-3.0-2.0-2.1","1","r7xd90coxcql","22","女性","","","","不一致","j","0"
"null","","null","","html-keyboard-response","12","21048","0.0-3.0-2.0-0.2","1","r7xd90coxcql","22","女性","","","","","",""
"null","<p style=""font-size: 48px"">+</p>","null","","html-keyboard-response","13","21560","0.0-3.0-2.0-1.2","1","r7xd90coxcql","22","女性","","","","","",""
"473","<p style=""font-size: 48px"">--<--</p>","j","flanker_practice","html-keyboard-response","14","22034","0.0-3.0-2.0-2.2","1","r7xd90coxcql","22","女性","","","","中性","f","0"
"null","","null","","html-keyboard-response","15","22538","0.0-3.0-2.0-0.3","1","r7xd90coxcql","22","女性","","","","","",""
"null","<p style=""font-size: 48px"">+</p>","null","","html-keyboard-response","16","23054","0.0-3.0-2.0-1.3","1","r7xd90coxcql","22","女性","","","","","",""
"538","<p style=""font-size: 48px""><<><<</p>","j","flanker_practice","html-keyboard-response","17","23594","0.0-3.0-2.0-2.3","1","r7xd90coxcql","22","女性","","","","不一致","j","1"
"null","","null","","html-keyboard-response","18","24110","0.0-3.0-2.0-0.4","1","r7xd90coxcql","22","女性","","","","","",""
"null","<p style=""font-size: 48px"">+</p>","null","","html-keyboard-response","19","24613","0.0-3.0-2.0-1.4","1","r7xd90coxcql","22","女性","","","","","",""
"650","<p style=""font-size: 48px"">>>>>></p>","j","flanker_practice","html-keyboard-response","20","25264","0.0-3.0-2.0-2.4","1","r7xd90coxcql","22","女性","","","","一致","j","1"
"null","","null","","html-keyboard-response","21","25776","0.0-3.0-2.0-0.5","1","r7xd90coxcql","22","女性","","","","","",""
"null","<p style=""font-size: 48px"">+</p>","null","","html-keyboard-response","22","26288","0.0-3.0-2.0-1.5","1","r7xd90coxcql","22","女性","","","","","",""
"744","<p style=""font-size: 48px"">>>>>></p>","j","flanker_practice","html-keyboard-response","23","27034","0.0-3.0-2.0-2.5","1","r7xd90coxcql","22","女性","","","","一致","j","1"
"null","","null","","html-keyboard-response","24","27550","0.0-3.0-2.0-0.6","1","r7xd90coxcql","22","女性","","","","","",""
"null","<p style=""font-size: 48px"">+</p>","null","","html-keyboard-response","25","28054","0.0-3.0-2.0-1.6","1","r7xd90coxcql","22","女性","","","","","",""
"468","<p style=""font-size: 48px"">--<--</p>","f","flanker_practice","html-keyboard-response","26","28523","0.0-3.0-2.0-2.6","1","r7xd90coxcql","22","女性","","","","中性","f","1"
"null","","null","","html-keyboard-response","27","29039","0.0-3.0-2.0-0.7","1","r7xd90coxcql","22","女性","","","","","",""
"null","<p style=""font-size: 48px"">+</p>","null","","html-keyboard-response","28","29543","0.0-3.0-2.0-1.7","1","r7xd90coxcql","22","女性","","","","","",""
"460","<p style=""font-size: 48px""><<<<<</p>","f","flanker_practice","html-keyboard-response","29","30006","0.0-3.0-2.0-2.7","1","r7xd90coxcql","22","女性","","","","一致","f","1"
"null","","null","","html-keyboard-response","30","30508","0.0-3.0-2.0-0.8","1","r7xd90coxcql","22","女性","","","","","",""
"null","<p style=""font-size: 48px"">+</p>","null","","html-keyboard-response","31","31025","0.0-3.0-2.0-1.8","1","r7xd90coxcql","22","女性","","","","","",""
"488","<p style=""font-size: 48px""><<<<<</p>","f","flanker_practice","html-keyboard-response","32","31513","0.0-3.0-2.0-2.8","1","r7xd90coxcql","22","女性","","","","一致","f","1"
"null","","null","","html-keyboard-response","33","32029","0.0-3.0-2.0-0.9","1","r7xd90coxcql","22","女性","","","","","",""
"null","<p style=""font-size: 48px"">+</p>","null","","html-keyboard-response","34","32539","0.0-3.0-2.0-1.9","1","r7xd90coxcql","22","女性","","","","","",""
"565","<p style=""font-size: 48px"">>><>></p>","f","flanker_practice","html-keyboard-response","35","33106","0.0-3.0-2.0-2.9","1","r7xd90coxcql","22","女性","","","","不一致","f","1"
"null","","null","","html-keyboard-response","36","33613","0.0-3.0-2.0-0.10","1","r7xd90coxcql","22","女性","","","","","",""
"null","<p style=""font-size: 48px"">+</p>","null","","html-keyboard-response","37","34129","0.0-3.0-2.0-1.10","1","r7xd90coxcql","22","女性","","","","","",""
"416","<p style=""font-size: 48px"">-->--</p>","j","flanker_practice","html-keyboard-response","38","34545","0.0-3.0-2.0-2.10","1","r7xd90coxcql","22","女性","","","","中性","j","1"
"null","","null","","html-keyboard-response","39","35049","0.0-3.0-2.0-0.11","1","r7xd90coxcql","22","女性","","","","","",""
"null","<p style=""font-size: 48px"">+</p>","null","","html-keyboard-response","40","35554","0.0-3.0-2.0-1.11","1","r7xd90coxcql","22","女性","","","","","",""
"489","<p style=""font-size: 48px"">>><>></p>","f","flanker_practice","html-keyboard-response","41","36044","0.0-3.0-2.0-2.11","1","r7xd90coxcql","22","女性","","","","不一致","f","1"
"1930","それでは本番を行います。<br>準備ができたら「f」キーか「j」キーを押して課題を開始してください。","f","instruction","html-keyboard-response","42","37975","0.0-3.0-3.0","1","r7xd90coxcql","22","女性","","","","","",""
"null","","null","","html-keyboard-response","43","38489","0.0-3.0-4.0-0.0","1","r7xd90coxcql","22","女性","","","","","",""
"null","<p style=""font-size: 48px"">+</p>","null","","html-keyboard-response","44","39004","0.0-3.0-4.0-1.0","1","r7xd90coxcql","22","女性","","","","","",""
"469","<p style=""font-size: 48px""><<<<<</p>","f","flanker_main","html-keyboard-response","45","39475","0.0-3.0-4.0-2.0","1","r7xd90coxcql","22","女性","","","","一致","f","1"
"null","","null","","html-keyboard-response","46","39983","0.0-3.0-4.0-0.1","1","r7xd90coxcql","22","女性","","","","","",""
"null","<p style=""font-size: 48px"">+</p>","null","","html-keyboard-response","47","40499","0.0-3.0-4.0-1.1","1","r7xd90coxcql","22","女性","","","","","",""
"505","<p style=""font-size: 48px""><<><<</p>","f","flanker_main","html-keyboard-response","48","41004","0.0-3.0-4.0-2.1","1","r7xd90coxcql","22","女性","","","","不一致","j","0"
"null","","null","","html-keyboard-response","49","41504","0.0-3.0-4.0-0.2","1","r7xd90coxcql","22","女性","","","","","",""
"null","<p style=""font-size: 48px"">+</p>","null","","html-keyboard-response","50","42013","0.0-3.0-4.0-1.2","1","r7xd90coxcql","22","女性","","","","","",""
"479","<p style=""font-size: 48px"">>>>>></p>","j","flanker_main","html-keyboard-response","51","42496","0.0-3.0-4.0-2.2","1","r7xd90coxcql","22","女性","","","","一致","j","1"
"null","","null","","html-keyboard-response","52","43003","0.0-3.0-4.0-0.3","1","r7xd90coxcql","22","女性","","","","","",""
"null","<p style=""font-size: 48px"">+</p>","null","","html-keyboard-response","53","43505","0.0-3.0-4.0-1.3","1","r7xd90coxcql","22","女性","","","","","",""
"568","<p style=""font-size: 48px"">-->--</p>","j","flanker_main","html-keyboard-response","54","44075","0.0-3.0-4.0-2.3","1","r7xd90coxcql","22","女性","","","","中性","j","1"
"null","","null","","html-keyboard-response","55","44584","0.0-3.0-4.0-0.4","1","r7xd90coxcql","22","女性","","","","","",""
"null","<p style=""font-size: 48px"">+</p>","null","","html-keyboard-response","56","45099","0.0-3.0-4.0-1.4","1","r7xd90coxcql","22","女性","","","","","",""
"475","<p style=""font-size: 48px""><<<<<</p>","f","flanker_main","html-keyboard-response","57","45575","0.0-3.0-4.0-2.4","1","r7xd90coxcql","22","女性","","","","一致","f","1"
"null","","null","","html-keyboard-response","58","46080","0.0-3.0-4.0-0.5","1","r7xd90coxcql","22","女性","","","","","",""
"null","<p style=""font-size: 48px"">+</p>","null","","html-keyboard-response","59","46589","0.0-3.0-4.0-1.5","1","r7xd90coxcql","22","女性","","","","","",""
"485","<p style=""font-size: 48px"">--<--</p>","f","flanker_main","html-keyboard-response","60","47075","0.0-3.0-4.0-2.5","1","r7xd90coxcql","22","女性","","","","中性","f","1"
"null","","null","","html-keyboard-response","61","47589","0.0-3.0-4.0-0.6","1","r7xd90coxcql","22","女性","","","","","",""
"null","<p style=""font-size: 48px"">+</p>","null","","html-keyboard-response","62","48105","0.0-3.0-4.0-1.6","1","r7xd90coxcql","22","女性","","","","","",""
"418","<p style=""font-size: 48px"">>>>>></p>","j","flanker_main","html-keyboard-response","63","48525","0.0-3.0-4.0-2.6","1","r7xd90coxcql","22","女性","","","","一致","j","1"
"null","","null","","html-keyboard-response","64","49029","0.0-3.0-4.0-0.7","1","r7xd90coxcql","22","女性","","","","","",""
"null","<p style=""font-size: 48px"">+</p>","null","","html-keyboard-response","65","49539","0.0-3.0-4.0-1.7","1","r7xd90coxcql","22","女性","","","","","",""
"435","<p style=""font-size: 48px""><<<<<</p>","f","flanker_main","html-keyboard-response","66","49975","0.0-3.0-4.0-2.7","1","r7xd90coxcql","22","女性","","","","一致","f","1"
"null","","null","","html-keyboard-response","67","50489","0.0-3.0-4.0-0.8","1","r7xd90coxcql","22","女性","","","","","",""
"null","<p style=""font-size: 48px"">+</p>","null","","html-keyboard-response","68","50999","0.0-3.0-4.0-1.8","1","r7xd90coxcql","22","女性","","","","","",""
"444","<p style=""font-size: 48px"">-->--</p>","j","flanker_main","html-keyboard-response","69","51445","0.0-3.0-4.0-2.8","1","r7xd90coxcql","22","女性","","","","中性","j","1"
"null","","null","","html-keyboard-response","70","51954","0.0-3.0-4.0-0.9","1","r7xd90coxcql","22","女性","","","","","",""
"null","<p style=""font-size: 48px"">+</p>","null","","html-keyboard-response","71","52460","0.0-3.0-4.0-1.9","1","r7xd90coxcql","22","女性","","","","","",""
"435","<p style=""font-size: 48px"">--<--</p>","f","flanker_main","html-keyboard-response","72","52895","0.0-3.0-4.0-2.9","1","r7xd90coxcql","22","女性","","","","中性","f","1"
"null","","null","","html-keyboard-response","73","53399","0.0-3.0-4.0-0.10","1","r7xd90coxcql","22","女性","","","","","",""
"null","<p style=""font-size: 48px"">+</p>","null","","html-keyboard-response","74","53910","0.0-3.0-4.0-1.10","1","r7xd90coxcql","22","女性","","","","","",""
"373","<p style=""font-size: 48px"">-->--</p>","j","flanker_main","html-keyboard-response","75","54285","0.0-3.0-4.0-2.10","1","r7xd90coxcql","22","女性","","","","中性","j","1"
"null","","null","","html-keyboard-response","76","54795","0.0-3.0-4.0-0.11","1","r7xd90coxcql","22","女性","","","","","",""
"null","<p style=""font-size: 48px"">+</p>","null","","html-keyboard-response","77","55299","0.0-3.0-4.0-1.11","1","r7xd90coxcql","22","女性","","","","","",""
"584","<p style=""font-size: 48px""><<><<</p>","j","flanker_main","html-keyboard-response","78","55884","0.0-3.0-4.0-2.11","1","r7xd90coxcql","22","女性","","","","不一致","j","1"
"null","","null","","html-keyboard-response","79","56398","0.0-3.0-4.0-0.12","1","r7xd90coxcql","22","女性","","","","","",""
"null","<p style=""font-size: 48px"">+</p>","null","","html-keyboard-response","80","56902","0.0-3.0-4.0-1.12","1","r7xd90coxcql","22","女性","","","","","",""
"421","<p style=""font-size: 48px"">-->--</p>","j","flanker_main","html-keyboard-response","81","57324","0.0-3.0-4.0-2.12","1","r7xd90coxcql","22","女性","","","","中性","j","1"
"null","","null","","html-keyboard-response","82","57836","0.0-3.0-4.0-0.13","1","r7xd90coxcql","22","女性","","","","","",""
"null","<p style=""font-size: 48px"">+</p>","null","","html-keyboard-response","83","58339","0.0-3.0-4.0-1.13","1","r7xd90coxcql","22","女性","","","","","",""
"416","<p style=""font-size: 48px""><<<<<</p>","f","flanker_main","html-keyboard-response","84","58755","0.0-3.0-4.0-2.13","1","r7xd90coxcql","22","女性","","","","一致","f","1"
"null","","null","","html-keyboard-response","85","59264","0.0-3.0-4.0-0.14","1","r7xd90coxcql","22","女性","","","","","",""
"null","<p style=""font-size: 48px"">+</p>","null","","html-keyboard-response","86","59769","0.0-3.0-4.0-1.14","1","r7xd90coxcql","22","女性","","","","","",""
"396","<p style=""font-size: 48px""><<><<</p>","j","flanker_main","html-keyboard-response","87","60166","0.0-3.0-4.0-2.14","1","r7xd90coxcql","22","女性","","","","不一致","j","1"
"null","","null","","html-keyboard-response","88","60668","0.0-3.0-4.0-0.15","1","r7xd90coxcql","22","女性","","","","","",""
"null","<p style=""font-size: 48px"">+</p>","null","","html-keyboard-response","89","61182","0.0-3.0-4.0-1.15","1","r7xd90coxcql","22","女性","","","","","",""
"492","<p style=""font-size: 48px"">>><>></p>","f","flanker_main","html-keyboard-response","90","61675","0.0-3.0-4.0-2.15","1","r7xd90coxcql","22","女性","","","","不一致","f","1"
"null","","null","","html-keyboard-response","91","62179","0.0-3.0-4.0-0.16","1","r7xd90coxcql","22","女性","","","","","",""
"null","<p style=""font-size: 48px"">+</p>","null","","html-keyboard-response","92","62685","0.0-3.0-4.0-1.16","1","r7xd90coxcql","22","女性","","","","","",""
"390","<p style=""font-size: 48px"">>>>>></p>","j","flanker_main","html-keyboard-response","93","63076","0.0-3.0-4.0-2.16","1","r7xd90coxcql","22","女性","","","","一致","j","1"
"null","","null","","html-keyboard-response","94","63582","0.0-3.0-4.0-0.17","1","r7xd90coxcql","22","女性","","","","","",""
"null","<p style=""font-size: 48px"">+</p>","null","","html-keyboard-response","95","64093","0.0-3.0-4.0-1.17","1","r7xd90coxcql","22","女性","","","","","",""
"391","<p style=""font-size: 48px""><<<<<</p>","f","flanker_main","html-keyboard-response","96","64486","0.0-3.0-4.0-2.17","1","r7xd90coxcql","22","女性","","","","一致","f","1"
"null","","null","","html-keyboard-response","97","64999","0.0-3.0-4.0-0.18","1","r7xd90coxcql","22","女性","","","","","",""
"null","<p style=""font-size: 48px"">+</p>","null","","html-keyboard-response","98","65510","0.0-3.0-4.0-1.18","1","r7xd90coxcql","22","女性","","","","","",""
"364","<p style=""font-size: 48px"">-->--</p>","j","flanker_main","html-keyboard-response","99","65875","0.0-3.0-4.0-2.18","1","r7xd90coxcql","22","女性","","","","中性","j","1"
"null","","null","","html-keyboard-response","100","66378","0.0-3.0-4.0-0.19","1","r7xd90coxcql","22","女性","","","","","",""
"null","<p style=""font-size: 48px"">+</p>","null","","html-keyboard-response","101","66878","0.0-3.0-4.0-1.19","1","r7xd90coxcql","22","女性","","","","","",""
"485","<p style=""font-size: 48px"">>><>></p>","f","flanker_main","html-keyboard-response","102","67365","0.0-3.0-4.0-2.19","1","r7xd90coxcql","22","女性","","","","不一致","f","1"
"null","","null","","html-keyboard-response","103","67872","0.0-3.0-4.0-0.20","1","r7xd90coxcql","22","女性","","","","","",""
"null","<p style=""font-size: 48px"">+</p>","null","","html-keyboard-response","104","68383","0.0-3.0-4.0-1.20","1","r7xd90coxcql","22","女性","","","","","",""
"490","<p style=""font-size: 48px"">>><>></p>","f","flanker_main","html-keyboard-response","105","68875","0.0-3.0-4.0-2.20","1","r7xd90coxcql","22","女性","","","","不一致","f","1"
"null","","null","","html-keyboard-response","106","69386","0.0-3.0-4.0-0.21","1","r7xd90coxcql","22","女性","","","","","",""
"null","<p style=""font-size: 48px"">+</p>","null","","html-keyboard-response","107","69899","0.0-3.0-4.0-1.21","1","r7xd90coxcql","22","女性","","","","","",""
"295","<p style=""font-size: 48px""><<><<</p>","j","flanker_main","html-keyboard-response","108","70195","0.0-3.0-4.0-2.21","1","r7xd90coxcql","22","女性","","","","不一致","j","1"
"null","","null","","html-keyboard-response","109","70699","0.0-3.0-4.0-0.22","1","r7xd90coxcql","22","女性","","","","","",""
"null","<p style=""font-size: 48px"">+</p>","null","","html-keyboard-response","110","71214","0.0-3.0-4.0-1.22","1","r7xd90coxcql","22","女性","","","","","",""
"440","<p style=""font-size: 48px"">-->--</p>","j","flanker_main","html-keyboard-response","111","71655","0.0-3.0-4.0-2.22","1","r7xd90coxcql","22","女性","","","","中性","j","1"
"null","","null","","html-keyboard-response","112","72162","0.0-3.0-4.0-0.23","1","r7xd90coxcql","22","女性","","","","","",""
"null","<p style=""font-size: 48px"">+</p>","null","","html-keyboard-response","113","72679","0.0-3.0-4.0-1.23","1","r7xd90coxcql","22","女性","","","","","",""
"385","<p style=""font-size: 48px"">--<--</p>","f","flanker_main","html-keyboard-response","114","73064","0.0-3.0-4.0-2.23","1","r7xd90coxcql","22","女性","","","","中性","f","1"
"null","","null","","html-keyboard-response","115","73569","0.0-3.0-4.0-0.24","1","r7xd90coxcql","22","女性","","","","","",""
"null","<p style=""font-size: 48px"">+</p>","null","","html-keyboard-response","116","74076","0.0-3.0-4.0-1.24","1","r7xd90coxcql","22","女性","","","","","",""
"467","<p style=""font-size: 48px""><<<<<</p>","f","flanker_main","html-keyboard-response","117","74545","0.0-3.0-4.0-2.24","1","r7xd90coxcql","22","女性","","","","一致","f","1"
"null","","null","","html-keyboard-response","118","75053","0.0-3.0-4.0-0.25","1","r7xd90coxcql","22","女性","","","","","",""
"null","<p style=""font-size: 48px"">+</p>","null","","html-keyboard-response","119","75562","0.0-3.0-4.0-1.25","1","r7xd90coxcql","22","女性","","","","","",""
"471","<p style=""font-size: 48px"">>><>></p>","f","flanker_main","html-keyboard-response","120","76035","0.0-3.0-4.0-2.25","1","r7xd90coxcql","22","女性","","","","不一致","f","1"
"null","","null","","html-keyboard-response","121","76539","0.0-3.0-4.0-0.26","1","r7xd90coxcql","22","女性","","","","","",""
"null","<p style=""font-size: 48px"">+</p>","null","","html-keyboard-response","122","77048","0.0-3.0-4.0-1.26","1","r7xd90coxcql","22","女性","","","","","",""
"415","<p style=""font-size: 48px""><<<<<</p>","f","flanker_main","html-keyboard-response","123","77465","0.0-3.0-4.0-2.26","1","r7xd90coxcql","22","女性","","","","一致","f","1"
"null","","null","","html-keyboard-response","124","77972","0.0-3.0-4.0-0.27","1","r7xd90coxcql","22","女性","","","","","",""
"null","<p style=""font-size: 48px"">+</p>","null","","html-keyboard-response","125","78480","0.0-3.0-4.0-1.27","1","r7xd90coxcql","22","女性","","","","","",""
"385","<p style=""font-size: 48px"">-->--</p>","j","flanker_main","html-keyboard-response","126","78865","0.0-3.0-4.0-2.27","1","r7xd90coxcql","22","女性","","","","中性","j","1"
"null","","null","","html-keyboard-response","127","79373","0.0-3.0-4.0-0.28","1","r7xd90coxcql","22","女性","","","","","",""
"null","<p style=""font-size: 48px"">+</p>","null","","html-keyboard-response","128","79882","0.0-3.0-4.0-1.28","1","r7xd90coxcql","22","女性","","","","","",""
"411","<p style=""font-size: 48px"">--<--</p>","f","flanker_main","html-keyboard-response","129","80295","0.0-3.0-4.0-2.28","1","r7xd90coxcql","22","女性","","","","中性","f","1"
"null","","null","","html-keyboard-response","130","80799","0.0-3.0-4.0-0.29","1","r7xd90coxcql","22","女性","","","","","",""
"null","<p style=""font-size: 48px"">+</p>","null","","html-keyboard-response","131","81303","0.0-3.0-4.0-1.29","1","r7xd90coxcql","22","女性","","","","","",""
"542","<p style=""font-size: 48px""><<><<</p>","j","flanker_main","html-keyboard-response","132","81844","0.0-3.0-4.0-2.29","1","r7xd90coxcql","22","女性","","","","不一致","j","1"
"null","","null","","html-keyboard-response","133","82353","0.0-3.0-4.0-0.30","1","r7xd90coxcql","22","女性","","","","","",""
"null","<p style=""font-size: 48px"">+</p>","null","","html-keyboard-response","134","82859","0.0-3.0-4.0-1.30","1","r7xd90coxcql","22","女性","","","","","",""
"384","<p style=""font-size: 48px"">--<--</p>","f","flanker_main","html-keyboard-response","135","83245","0.0-3.0-4.0-2.30","1","r7xd90coxcql","22","女性","","","","中性","f","1"
"null","","null","","html-keyboard-response","136","83754","0.0-3.0-4.0-0.31","1","r7xd90coxcql","22","女性","","","","","",""
"null","<p style=""font-size: 48px"">+</p>","null","","html-keyboard-response","137","84269","0.0-3.0-4.0-1.31","1","r7xd90coxcql","22","女性","","","","","",""
"426","<p style=""font-size: 48px""><<><<</p>","j","flanker_main","html-keyboard-response","138","84695","0.0-3.0-4.0-2.31","1","r7xd90coxcql","22","女性","","","","不一致","j","1"
"null","","null","","html-keyboard-response","139","85209","0.0-3.0-4.0-0.32","1","r7xd90coxcql","22","女性","","","","","",""
"null","<p style=""font-size: 48px"">+</p>","null","","html-keyboard-response","140","85722","0.0-3.0-4.0-1.32","1","r7xd90coxcql","22","女性","","","","","",""
"502","<p style=""font-size: 48px"">>><>></p>","f","flanker_main","html-keyboard-response","141","86225","0.0-3.0-4.0-2.32","1","r7xd90coxcql","22","女性","","","","不一致","f","1"
"null","","null","","html-keyboard-response","142","86739","0.0-3.0-4.0-0.33","1","r7xd90coxcql","22","女性","","","","","",""
"null","<p style=""font-size: 48px"">+</p>","null","","html-keyboard-response","143","87249","0.0-3.0-4.0-1.33","1","r7xd90coxcql","22","女性","","","","","",""
"445","<p style=""font-size: 48px"">--<--</p>","f","flanker_main","html-keyboard-response","144","87694","0.0-3.0-4.0-2.33","1","r7xd90coxcql","22","女性","","","","中性","f","1"
"null","","null","","html-keyboard-response","145","88205","0.0-3.0-4.0-0.34","1","r7xd90coxcql","22","女性","","","","","",""
"null","<p style=""font-size: 48px"">+</p>","null","","html-keyboard-response","146","88714","0.0-3.0-4.0-1.34","1","r7xd90coxcql","22","女性","","","","","",""
"410","<p style=""font-size: 48px"">--<--</p>","f","flanker_main","html-keyboard-response","147","89125","0.0-3.0-4.0-2.34","1","r7xd90coxcql","22","女性","","","","中性","f","1"
"null","","null","","html-keyboard-response","148","89633","0.0-3.0-4.0-0.35","1","r7xd90coxcql","22","女性","","","","","",""
"null","<p style=""font-size: 48px"">+</p>","null","","html-keyboard-response","149","90150","0.0-3.0-4.0-1.35","1","r7xd90coxcql","22","女性","","","","","",""
"433","<p style=""font-size: 48px"">>>>>></p>","j","flanker_main","html-keyboard-response","150","90585","0.0-3.0-4.0-2.35","1","r7xd90coxcql","22","女性","","","","一致","j","1"
"null","","null","","html-keyboard-response","151","91099","0.0-3.0-4.0-0.36","1","r7xd90coxcql","22","女性","","","","","",""
"null","<p style=""font-size: 48px"">+</p>","null","","html-keyboard-response","152","91604","0.0-3.0-4.0-1.36","1","r7xd90coxcql","22","女性","","","","","",""
"399","<p style=""font-size: 48px"">--<--</p>","f","flanker_main","html-keyboard-response","153","92004","0.0-3.0-4.0-2.36","1","r7xd90coxcql","22","女性","","","","中性","f","1"
"null","","null","","html-keyboard-response","154","92509","0.0-3.0-4.0-0.37","1","r7xd90coxcql","22","女性","","","","","",""
"null","<p style=""font-size: 48px"">+</p>","null","","html-keyboard-response","155","93021","0.0-3.0-4.0-1.37","1","r7xd90coxcql","22","女性","","","","","",""
"433","<p style=""font-size: 48px"">-->--</p>","j","flanker_main","html-keyboard-response","156","93454","0.0-3.0-4.0-2.37","1","r7xd90coxcql","22","女性","","","","中性","j","1"
"null","","null","","html-keyboard-response","157","93960","0.0-3.0-4.0-0.38","1","r7xd90coxcql","22","女性","","","","","",""
"null","<p style=""font-size: 48px"">+</p>","null","","html-keyboard-response","158","94472","0.0-3.0-4.0-1.38","1","r7xd90coxcql","22","女性","","","","","",""
"381","<p style=""font-size: 48px""><<<<<</p>","f","flanker_main","html-keyboard-response","159","94855","0.0-3.0-4.0-2.38","1","r7xd90coxcql","22","女性","","","","一致","f","1"
"null","","null","","html-keyboard-response","160","95359","0.0-3.0-4.0-0.39","1","r7xd90coxcql","22","女性","","","","","",""
"null","<p style=""font-size: 48px"">+</p>","null","","html-keyboard-response","161","95874","0.0-3.0-4.0-1.39","1","r7xd90coxcql","22","女性","","","","","",""
"399","<p style=""font-size: 48px""><<><<</p>","j","flanker_main","html-keyboard-response","162","96275","0.0-3.0-4.0-2.39","1","r7xd90coxcql","22","女性","","","","不一致","j","1"
"null","","null","","html-keyboard-response","163","96783","0.0-3.0-4.0-0.40","1","r7xd90coxcql","22","女性","","","","","",""
"null","<p style=""font-size: 48px"">+</p>","null","","html-keyboard-response","164","97293","0.0-3.0-4.0-1.40","1","r7xd90coxcql","22","女性","","","","","",""
"441","<p style=""font-size: 48px"">-->--</p>","j","flanker_main","html-keyboard-response","165","97734","0.0-3.0-4.0-2.40","1","r7xd90coxcql","22","女性","","","","中性","j","1"
"null","","null","","html-keyboard-response","166","98249","0.0-3.0-4.0-0.41","1","r7xd90coxcql","22","女性","","","","","",""
"null","<p style=""font-size: 48px"">+</p>","null","","html-keyboard-response","167","98756","0.0-3.0-4.0-1.41","1","r7xd90coxcql","22","女性","","","","","",""
"438","<p style=""font-size: 48px"">>>>>></p>","j","flanker_main","html-keyboard-response","168","99194","0.0-3.0-4.0-2.41","1","r7xd90coxcql","22","女性","","","","一致","j","1"
"null","","null","","html-keyboard-response","169","99703","0.0-3.0-4.0-0.42","1","r7xd90coxcql","22","女性","","","","","",""
"null","<p style=""font-size: 48px"">+</p>","null","","html-keyboard-response","170","100209","0.0-3.0-4.0-1.42","1","r7xd90coxcql","22","女性","","","","","",""
"464","<p style=""font-size: 48px"">>>>>></p>","j","flanker_main","html-keyboard-response","171","100675","0.0-3.0-4.0-2.42","1","r7xd90coxcql","22","女性","","","","一致","j","1"
"null","","null","","html-keyboard-response","172","101189","0.0-3.0-4.0-0.43","1","r7xd90coxcql","22","女性","","","","","",""
"null","<p style=""font-size: 48px"">+</p>","null","","html-keyboard-response","173","101695","0.0-3.0-4.0-1.43","1","r7xd90coxcql","22","女性","","","","","",""
"420","<p style=""font-size: 48px"">>>>>></p>","j","flanker_main","html-keyboard-response","174","102115","0.0-3.0-4.0-2.43","1","r7xd90coxcql","22","女性","","","","一致","j","1"
"null","","null","","html-keyboard-response","175","102629","0.0-3.0-4.0-0.44","1","r7xd90coxcql","22","女性","","","","","",""
"null","<p style=""font-size: 48px"">+</p>","null","","html-keyboard-response","176","103139","0.0-3.0-4.0-1.44","1","r7xd90coxcql","22","女性","","","","","",""
"535","<p style=""font-size: 48px"">-->--</p>","j","flanker_main","html-keyboard-response","177","103675","0.0-3.0-4.0-2.44","1","r7xd90coxcql","22","女性","","","","中性","j","1"
"null","","null","","html-keyboard-response","178","104178","0.0-3.0-4.0-0.45","1","r7xd90coxcql","22","女性","","","","","",""
"null","<p style=""font-size: 48px"">+</p>","null","","html-keyboard-response","179","104679","0.0-3.0-4.0-1.45","1","r7xd90coxcql","22","女性","","","","","",""
"356","<p style=""font-size: 48px""><<<<<</p>","f","flanker_main","html-keyboard-response","180","105036","0.0-3.0-4.0-2.45","1","r7xd90coxcql","22","女性","","","","一致","f","1"
"null","","null","","html-keyboard-response","181","105538","0.0-3.0-4.0-0.46","1","r7xd90coxcql","22","女性","","","","","",""
"null","<p style=""font-size: 48px"">+</p>","null","","html-keyboard-response","182","106048","0.0-3.0-4.0-1.46","1","r7xd90coxcql","22","女性","","","","","",""
"405","<p style=""font-size: 48px"">--<--</p>","f","flanker_main","html-keyboard-response","183","106455","0.0-3.0-4.0-2.46","1","r7xd90coxcql","22","女性","","","","中性","f","1"
"null","","null","","html-keyboard-response","184","106959","0.0-3.0-4.0-0.47","1","r7xd90coxcql","22","女性","","","","","",""
"null","<p style=""font-size: 48px"">+</p>","null","","html-keyboard-response","185","107468","0.0-3.0-4.0-1.47","1","r7xd90coxcql","22","女性","","","","","",""
"365","<p style=""font-size: 48px"">>>>>></p>","j","flanker_main","html-keyboard-response","186","107836","0.0-3.0-4.0-2.47","1","r7xd90coxcql","22","女性","","","","一致","j","1"
"null","","null","","html-keyboard-response","187","108348","0.0-3.0-4.0-0.48","1","r7xd90coxcql","22","女性","","","","","",""
"null","<p style=""font-size: 48px"">+</p>","null","","html-keyboard-response","188","108859","0.0-3.0-4.0-1.48","1","r7xd90coxcql","22","女性","","","","","",""
"425","<p style=""font-size: 48px""><<><<</p>","j","flanker_main","html-keyboard-response","189","109286","0.0-3.0-4.0-2.48","1","r7xd90coxcql","22","女性","","","","不一致","j","1"
"null","","null","","html-keyboard-response","190","109793","0.0-3.0-4.0-0.49","1","r7xd90coxcql","22","女性","","","","","",""
"null","<p style=""font-size: 48px"">+</p>","null","","html-keyboard-response","191","110303","0.0-3.0-4.0-1.49","1","r7xd90coxcql","22","女性","","","","","",""
"441","<p style=""font-size: 48px""><<><<</p>","j","flanker_main","html-keyboard-response","192","110745","0.0-3.0-4.0-2.49","1","r7xd90coxcql","22","女性","","","","不一致","j","1"
"null","","null","","html-keyboard-response","193","111258","0.0-3.0-4.0-0.50","1","r7xd90coxcql","22","女性","","","","","",""
"null","<p style=""font-size: 48px"">+</p>","null","","html-keyboard-response","194","111773","0.0-3.0-4.0-1.50","1","r7xd90coxcql","22","女性","","","","","",""
"442","<p style=""font-size: 48px"">>><>></p>","f","flanker_main","html-keyboard-response","195","112216","0.0-3.0-4.0-2.50","1","r7xd90coxcql","22","女性","","","","不一致","f","1"
"null","","null","","html-keyboard-response","196","112725","0.0-3.0-4.0-0.51","1","r7xd90coxcql","22","女性","","","","","",""
"null","<p style=""font-size: 48px"">+</p>","null","","html-keyboard-response","197","113237","0.0-3.0-4.0-1.51","1","r7xd90coxcql","22","女性","","","","","",""
"349","<p style=""font-size: 48px"">>><>></p>","j","flanker_main","html-keyboard-response","198","113586","0.0-3.0-4.0-2.51","1","r7xd90coxcql","22","女性","","","","不一致","f","0"
"null","","null","","html-keyboard-response","199","114095","0.0-3.0-4.0-0.52","1","r7xd90coxcql","22","女性","","","","","",""
"null","<p style=""font-size: 48px"">+</p>","null","","html-keyboard-response","200","114599","0.0-3.0-4.0-1.52","1","r7xd90coxcql","22","女性","","","","","",""
"408","<p style=""font-size: 48px""><<<<<</p>","f","flanker_main","html-keyboard-response","201","115008","0.0-3.0-4.0-2.52","1","r7xd90coxcql","22","女性","","","","一致","f","1"
"null","","null","","html-keyboard-response","202","115509","0.0-3.0-4.0-0.53","1","r7xd90coxcql","22","女性","","","","","",""
"null","<p style=""font-size: 48px"">+</p>","null","","html-keyboard-response","203","116025","0.0-3.0-4.0-1.53","1","r7xd90coxcql","22","女性","","","","","",""
"488","<p style=""font-size: 48px"">>><>></p>","f","flanker_main","html-keyboard-response","204","116515","0.0-3.0-4.0-2.53","1","r7xd90coxcql","22","女性","","","","不一致","f","1"
"null","","null","","html-keyboard-response","205","117019","0.0-3.0-4.0-0.54","1","r7xd90coxcql","22","女性","","","","","",""
"null","<p style=""font-size: 48px"">+</p>","null","","html-keyboard-response","206","117533","0.0-3.0-4.0-1.54","1","r7xd90coxcql","22","女性","","","","","",""
"411","<p style=""font-size: 48px"">>>>>></p>","j","flanker_main","html-keyboard-response","207","117945","0.0-3.0-4.0-2.54","1","r7xd90coxcql","22","女性","","","","一致","j","1"
"null","","null","","html-keyboard-response","208","118449","0.0-3.0-4.0-0.55","1","r7xd90coxcql","22","女性","","","","","",""
"null","<p style=""font-size: 48px"">+</p>","null","","html-keyboard-response","209","118954","0.0-3.0-4.0-1.55","1","r7xd90coxcql","22","女性","","","","","",""
"449","<p style=""font-size: 48px"">--<--</p>","f","flanker_main","html-keyboard-response","210","119404","0.0-3.0-4.0-2.55","1","r7xd90coxcql","22","女性","","","","中性","f","1"
"null","","null","","html-keyboard-response","211","119907","0.0-3.0-4.0-0.56","1","r7xd90coxcql","22","女性","","","","","",""
"null","<p style=""font-size: 48px"">+</p>","null","","html-keyboard-response","212","120422","0.0-3.0-4.0-1.56","1","r7xd90coxcql","22","女性","","","","","",""
"412","<p style=""font-size: 48px""><<><<</p>","j","flanker_main","html-keyboard-response","213","120834","0.0-3.0-4.0-2.56","1","r7xd90coxcql","22","女性","","","","不一致","j","1"
"null","","null","","html-keyboard-response","214","121348","0.0-3.0-4.0-0.57","1","r7xd90coxcql","22","女性","","","","","",""
"null","<p style=""font-size: 48px"">+</p>","null","","html-keyboard-response","215","121858","0.0-3.0-4.0-1.57","1","r7xd90coxcql","22","女性","","","","","",""
"495","<p style=""font-size: 48px"">>><>></p>","f","flanker_main","html-keyboard-response","216","122355","0.0-3.0-4.0-2.57","1","r7xd90coxcql","22","女性","","","","不一致","f","1"
"null","","null","","html-keyboard-response","217","122866","0.0-3.0-4.0-0.58","1","r7xd90coxcql","22","女性","","","","","",""
"null","<p style=""font-size: 48px"">+</p>","null","","html-keyboard-response","218","123373","0.0-3.0-4.0-1.58","1","r7xd90coxcql","22","女性","","","","","",""
"495","<p style=""font-size: 48px"">>>>>></p>","j","flanker_main","html-keyboard-response","219","123870","0.0-3.0-4.0-2.58","1","r7xd90coxcql","22","女性","","","","一致","j","1"
"null","","null","","html-keyboard-response","220","124383","0.0-3.0-4.0-0.59","1","r7xd90coxcql","22","女性","","","","","",""
"null","<p style=""font-size: 48px"">+</p>","null","","html-keyboard-response","221","124889","0.0-3.0-4.0-1.59","1","r7xd90coxcql","22","女性","","","","","",""
"447","<p style=""font-size: 48px"">>><>></p>","f","flanker_main","html-keyboard-response","222","125336","0.0-3.0-4.0-2.59","1","r7xd90coxcql","22","女性","","","","不一致","f","1"
"","","","","call-function","223","125337","0.0-3.0-5.0","1","r7xd90coxcql","22","女性","","","","","",""
"3758","次のページには，ふだんのあなたの様子について尋ねる文章が表示されます。それぞれについて，どの程度あてはまるかを<br>「あてはまらない」「どちらかと言えばあてはまらない」「どちらかと言えばあてはまる」「あてはまる」<br>の4つの選択肢から1つ選んで回答してください。<br><br>準備ができたらスペースキーを押して回答を開始してください。"," ","instruction","html-keyboard-response","224","129096","0.0-4.0","1","r7xd90coxcql","22","女性","","","","","",""
"37227","","{""Q19"":2,""Q14"":3,""Q17"":2,""Q5"":3,""Q1"":3,""Q15"":3,""Q4"":3,""Q10"":3,""Q12"":2,""Q7"":2,""Q20"":2,""Q9"":1,""Q6"":1,""Q3"":1,""Q11"":0,""Q18"":1,""Q16"":0,""Q13"":0,""Q2"":0,""Q8"":0}","bis_bas","survey-likert","225","166335","0.0-5.0","1","r7xd90coxcql","22","女性","","[18,13,16,4,0,14,3,9,11,6,19,8,5,2,10,17,15,12,1,7]","","","",""
